tid,posx,posy,posz,velx,vely,velz,accx,accy,accz,pointx1,pointy1,pointz1,doppler1,snr1,pointx2,pointy2,pointz2,doppler2,snr2,pointx3,pointy3,pointz3,doppler3,snr3,pointx4,pointy4,pointz4,doppler4,snr4,pointx5,pointy5,pointz5,doppler5,snr5,pointx6,pointy6,pointz6,doppler6,snr6,pointx7,pointy7,pointz7,doppler7,snr7,pointx8,pointy8,pointz8,doppler8,snr8,pointx9,pointy9,pointz9,doppler9,snr9,pointx10,pointy10,pointz10,doppler10,snr10,pointx11,pointy11,pointz11,doppler11,snr11
0.0,0.000546513707377,2.951014995574951,-1.084145176410675,-0.000298956525512,0.0223532766103744,-0.0676653534173965,-0.0001721719163469,0.0955951660871505,-0.0805902481079101,,,,,,,,,,,,,,,,,,,,,,,,,,,,,,,,,,,,,,,,,,,,,,,,,,,,,,,
0.0,0.000546513707377,2.951014995574951,-1.084145176410675,-0.000298956525512,0.0223532766103744,-0.0676653534173965,-0.0001721719163469,0.0955951660871505,-0.0805902481079101,0.0,2.2101402282714844,-1.3657310485839844,0.0,17.25,0.0,2.922177314758301,-1.2845495223999024,0.0,12.75,,,,,,,,,,,,,,,,,,,,,,,,,,,,,,,,,,,,,,,,,,,,,
0.0,0.000546513707377,2.951014995574951,-1.084145176410675,-0.000298956525512,0.0223532766103744,-0.0676653534173965,-0.0001721719163469,0.0955951660871505,-0.0805902481079101,0.0,2.192258834838867,-1.365373420715332,0.0,17.0,0.0,2.92360782623291,-1.3110139846801758,0.0,12.75,,,,,,,,,,,,,,,,,,,,,,,,,,,,,,,,,,,,,,,,,,,,,
0.0,0.000546513707377,2.951014995574951,-1.084145176410675,-0.000298956525512,0.0223532766103744,-0.0676653534173965,-0.0001721719163469,0.0955951660871505,-0.0805902481079101,0.0,2.1997690200805664,-1.382897186279297,0.0,15.0,0.0,2.507328987121582,-1.0778406143188477,0.0,15.75,0.0,2.902865409851074,-1.2952783584594727,0.0,13.25,0.0,2.7877092361450195,-0.9898641586303711,0.0,17.25,,,,,,,,,,,,,,,,,,,,,,,,,,,,,,,,,,,
0.0,0.000546513707377,2.951014995574951,-1.084145176410675,-0.000298956525512,0.0223532766103744,-0.0676653534173965,-0.0001721719163469,0.0955951660871505,-0.0805902481079101,0.0,2.871036529541016,-1.3045766830444336,0.0,13.75,,,,,,,,,,,,,,,,,,,,,,,,,,,,,,,,,,,,,,,,,,,,,,,,,,
0.0,0.000546513707377,2.951014995574951,-1.084145176410675,-0.000298956525512,0.0223532766103744,-0.0676653534173965,-0.0001721719163469,0.0955951660871505,-0.0805902481079101,,,,,,,,,,,,,,,,,,,,,,,,,,,,,,,,,,,,,,,,,,,,,,,,,,,,,,,
0.0,0.000546513707377,2.951014995574951,-1.084145176410675,-0.000298956525512,0.0223532766103744,-0.0676653534173965,-0.0001721719163469,0.0955951660871505,-0.0805902481079101,0.0,2.871394157409668,-1.318524169921875,0.0,12.25,,,,,,,,,,,,,,,,,,,,,,,,,,,,,,,,,,,,,,,,,,,,,,,,,,
0.0,0.000546513707377,2.951014995574951,-1.084145176410675,-0.000298956525512,0.0223532766103744,-0.0676653534173965,-0.0001721719163469,0.0955951660871505,-0.0805902481079101,0.0,2.682209014892578,-0.7591941833496094,0.0,15.75,0.0,2.7784109115600586,-0.7881620407104493,0.0,18.75,0.0,3.2776594161987305,-0.9208419799804688,0.0,12.75,,,,,,,,,,,,,,,,,,,,,,,,,,,,,,,,,,,,,,,,
0.0,0.000546513707377,2.951014995574951,-1.084145176410675,-0.000298956525512,0.0223532766103744,-0.0676653534173965,-0.0001721719163469,0.0955951660871505,-0.0805902481079101,0.0,2.671480178833008,-0.7684925079345704,0.0,15.0,0.0,2.737283706665039,-0.7423856735229493,0.0,20.5,0.0,2.767324447631836,-0.8697011947631836,0.0,18.0,,,,,,,,,,,,,,,,,,,,,,,,,,,,,,,,,,,,,,,,
0.0,0.000546513707377,2.951014995574951,-1.084145176410675,-0.000298956525512,0.0223532766103744,-0.0676653534173965,-0.0001721719163469,0.0955951660871505,-0.0805902481079101,0.0,2.889633178710937,-1.1043050765991211,0.0,13.25,0.0,2.78627872467041,-0.8321502685546875,0.0,20.25,0.0,2.7043819427490234,-0.6751516342163086,0.0,15.75,0.0,2.755165100097656,-0.7230737686157226,0.0,21.75,,,,,,,,,,,,,,,,,,,,,,,,,,,,,,,,,,,
0.0,0.000546513707377,2.951014995574951,-1.084145176410675,-0.000298956525512,0.0223532766103744,-0.0676653534173965,-0.0001721719163469,0.0955951660871505,-0.0805902481079101,0.0,2.892494201660156,-1.1507966995239258,0.0,13.0,0.0,2.788066864013672,-0.8325078964233399,0.0,19.0,0.0,2.7011632919311523,-0.6908872604370118,0.0,15.5,0.0,2.7494430541992188,-0.7155635833740234,0.0,21.0,,,,,,,,,,,,,,,,,,,,,,,,,,,,,,,,,,,
0.0,0.000546513707377,2.951014995574951,-1.084145176410675,-0.000298956525512,0.0223532766103744,-0.0676653534173965,-0.0001721719163469,0.0955951660871505,-0.0805902481079101,0.0,2.9053688049316406,-1.1279085159301758,0.0,13.0,,,,,,,,,,,,,,,,,,,,,,,,,,,,,,,,,,,,,,,,,,,,,,,,,,
0.0,0.000546513707377,2.951014995574951,-1.084145176410675,-0.000298956525512,0.0223532766103744,-0.0676653534173965,-0.0001721719163469,0.0955951660871505,-0.0805902481079101,0.0,2.935409545898437,-1.0842779159545899,0.0,12.5,,,,,,,,,,,,,,,,,,,,,,,,,,,,,,,,,,,,,,,,,,,,,,,,,,
0.0,0.000546513707377,2.951014995574951,-1.084145176410675,-0.000298956525512,0.0223532766103744,-0.0676653534173965,-0.0001721719163469,0.0955951660871505,-0.0805902481079101,0.0,2.920389175415039,-1.0717609405517579,0.0,12.5,,,,,,,,,,,,,,,,,,,,,,,,,,,,,,,,,,,,,,,,,,,,,,,,,,
0.0,0.000546513707377,2.951014995574951,-1.084145176410675,-0.000298956525512,0.0223532766103744,-0.0676653534173965,-0.0001721719163469,0.0955951660871505,-0.0805902481079101,0.0,2.907872200012207,-1.0857084274291993,0.0,12.25,,,,,,,,,,,,,,,,,,,,,,,,,,,,,,,,,,,,,,,,,,,,,,,,,,
0.0,0.000546513707377,2.951014995574951,-1.084145176410675,-0.000298956525512,0.0223532766103744,-0.0676653534173965,-0.0001721719163469,0.0955951660871505,-0.0805902481079101,0.0,2.239108085632324,-1.3546445846557615,0.0,12.5,0.0,2.648591995239258,-0.8207061767578125,0.0,17.5,0.0,2.72977352142334,-0.7756450653076172,0.0,22.5,0.0,2.7723312377929688,-0.8178451538085938,0.0,19.75,,,,,,,,,,,,,,,,,,,,,,,,,,,,,,,,,,,
0.0,0.000546513707377,2.951014995574951,-1.084145176410675,-0.000298956525512,0.0223532766103744,-0.0676653534173965,-0.0001721719163469,0.0955951660871505,-0.0805902481079101,0.0,2.6460886001586914,-0.8446672439575196,0.0,17.5,0.0,2.7240514755249023,-0.7967451095581054,0.0,22.5,0.0,2.774834632873535,-0.82642822265625,0.0,19.75,,,,,,,,,,,,,,,,,,,,,,,,,,,,,,,,,,,,,,,,
0.0,0.000546513707377,2.951014995574951,-1.084145176410675,-0.000298956525512,0.0223532766103744,-0.0676653534173965,-0.0001721719163469,0.0955951660871505,-0.0805902481079101,0.0,2.911806106567383,-1.0957220077514649,0.0,14.0,0.0,2.650737762451172,-0.8532503128051758,0.0,17.75,0.0,2.7240514755249023,-0.8364418029785157,0.0,23.0,0.0,2.7751922607421875,-0.8958080291748047,0.0,20.5,,,,,,,,,,,,,,,,,,,,,,,,,,,,,,,,,,,
0.0,0.000546513707377,2.951014995574951,-1.084145176410675,-0.000298956525512,0.0223532766103744,-0.0676653534173965,-0.0001721719163469,0.0955951660871505,-0.0805902481079101,0.0,2.910733222961426,-1.0513761520385743,0.0,15.25,0.0,2.663612365722656,-0.8164146423339844,0.0,17.5,0.0,2.732992172241211,-0.8396604537963868,0.0,23.0,0.0,2.785921096801758,-0.9058216094970704,0.0,21.25,,,,,,,,,,,,,,,,,,,,,,,,,,,,,,,,,,,
0.0,0.000546513707377,2.951014995574951,-1.084145176410675,-0.000298956525512,0.0223532766103744,-0.0676653534173965,-0.0001721719163469,0.0955951660871505,-0.0805902481079101,0.0,2.663254737854004,-0.8167722702026368,0.0,17.5,0.0,2.734065055847168,-0.8425214767456055,0.0,23.25,0.0,2.7827024459838867,-0.9240606307983399,0.0,21.5,,,,,,,,,,,,,,,,,,,,,,,,,,,,,,,,,,,,,,,,
0.0,0.000546513707377,2.951014995574951,-1.084145176410675,-0.000298956525512,0.0223532766103744,-0.0676653534173965,-0.0001721719163469,0.0955951660871505,-0.0805902481079101,0.0,2.783775329589844,-0.949094581604004,0.0,21.75,0.0,2.6764869689941406,-0.7752874374389648,0.0,16.5,0.0,2.7376413345336914,-0.8729198455810547,0.0,23.0,,,,,,,,,,,,,,,,,,,,,,,,,,,,,,,,,,,,,,,,
0.0,0.000546513707377,2.951014995574951,-1.084145176410675,-0.000298956525512,0.0223532766103744,-0.0676653534173965,-0.0001721719163469,0.0955951660871505,-0.0805902481079101,0.0,2.6575326919555664,-0.8464553833007813,0.0,16.75,0.0,2.741575241088867,-0.847170639038086,0.0,22.25,0.0,2.797722816467285,-0.9222724914550782,0.0,21.5,,,,,,,,,,,,,,,,,,,,,,,,,,,,,,,,,,,,,,,,
0.0,0.000546513707377,2.951014995574951,-1.084145176410675,-0.000298956525512,0.0223532766103744,-0.0676653534173965,-0.0001721719163469,0.0955951660871505,-0.0805902481079101,0.0,2.7937889099121094,-0.9612539291381836,0.0,21.5,0.0,2.6682615280151367,-0.8546808242797852,0.0,16.0,0.0,2.7365684509277344,-0.903318214416504,0.0,22.0,,,,,,,,,,,,,,,,,,,,,,,,,,,,,,,,,,,,,,,,
0.0,0.000546513707377,2.951014995574951,-1.084145176410675,-0.000298956525512,0.0223532766103744,-0.0676653534173965,-0.0001721719163469,0.0955951660871505,-0.0805902481079101,0.0,2.6378631591796875,-0.9347894668579102,0.0,15.0,0.0,2.7201175689697266,-0.9533861160278321,0.0,21.0,0.0,2.793431282043457,-0.994870948791504,0.0,20.0,0.0,2.9196739196777344,-1.0778406143188477,0.0,16.0,,,,,,,,,,,,,,,,,,,,,,,,,,,,,,,,,,,
0.0,0.000546513707377,2.951014995574951,-1.084145176410675,-0.000298956525512,0.0223532766103744,-0.0676653534173965,-0.0001721719163469,0.0955951660871505,-0.0805902481079101,0.0,2.937555313110352,-1.0570981979370118,0.0,16.0,0.0,2.654671669006348,-0.8285739898681641,0.0,13.75,0.0,2.7598142623901367,-0.7781484603881836,0.0,19.25,0.0,2.829551696777344,-0.9183385848999024,0.0,18.75,,,,,,,,,,,,,,,,,,,,,,,,,,,,,,,,,,,
0.0,0.000546513707377,2.951014995574951,-1.084145176410675,-0.000298956525512,0.0223532766103744,-0.0676653534173965,-0.0001721719163469,0.0955951660871505,-0.0805902481079101,0.0,2.804875373840332,-0.8886554718017579,0.0,20.5,0.0,2.9239654541015625,-0.9573200225830079,0.0,15.25,,,,,,,,,,,,,,,,,,,,,,,,,,,,,,,,,,,,,,,,,,,,,
0.0,0.000546513707377,2.951014995574951,-1.084145176410675,-0.000298956525512,0.0223532766103744,-0.0676653534173965,-0.0001721719163469,0.0955951660871505,-0.0805902481079101,0.0,2.9397010803222656,-1.0148981094360352,0.0,15.75,0.0,2.82132625579834,-0.8593299865722657,0.0,19.5,,,,,,,,,,,,,,,,,,,,,,,,,,,,,,,,,,,,,,,,,,,,,
0.0,0.000546513707377,2.951014995574951,-1.084145176410675,-0.000298956525512,0.0223532766103744,-0.0676653534173965,-0.0001721719163469,0.0955951660871505,-0.0805902481079101,0.0,2.805948257446289,-0.9462335586547852,0.0,21.25,0.0,2.9010772705078125,-1.0377862930297852,0.0,16.5,,,,,,,,,,,,,,,,,,,,,,,,,,,,,,,,,,,,,,,,,,,,,
0.0,0.000546513707377,2.951014995574951,-1.084145176410675,-0.000298956525512,0.0223532766103744,-0.0676653534173965,-0.0001721719163469,0.0955951660871505,-0.0805902481079101,0.0,2.7941465377807617,-0.9805658340454102,0.0,21.75,0.0,2.9000043869018555,-1.0467269897460938,0.0,16.5,,,,,,,,,,,,,,,,,,,,,,,,,,,,,,,,,,,,,,,,,,,,,
0.0,0.000546513707377,2.951014995574951,-1.084145176410675,-0.000298956525512,0.0223532766103744,-0.0676653534173965,-0.0001721719163469,0.0955951660871505,-0.0805902481079101,0.0,2.908945083618164,-1.0517337799072266,0.0,17.5,,,,,,,,,,,,,,,,,,,,,,,,,,,,,,,,,,,,,,,,,,,,,,,,,,
0.0,0.000546513707377,2.951014995574951,-1.084145176410675,-0.000298956525512,0.0223532766103744,-0.0676653534173965,-0.0001721719163469,0.0955951660871505,-0.0805902481079101,0.0,2.901792526245117,-1.0452964782714844,0.0,17.25,,,,,,,,,,,,,,,,,,,,,,,,,,,,,,,,,,,,,,,,,,,,,,,,,,
0.0,0.000546513707377,2.951014995574951,-1.084145176410675,-0.000298956525512,0.0223532766103744,-0.0676653534173965,-0.0001721719163469,0.0955951660871505,-0.0805902481079101,0.0,2.891063690185547,-1.0882118225097657,0.0,17.0,0.0,2.8023719787597656,-0.928352165222168,0.0,21.75,,,,,,,,,,,,,,,,,,,,,,,,,,,,,,,,,,,,,,,,,,,,,
0.0,0.000546513707377,2.951014995574951,-1.084145176410675,-0.000298956525512,0.0223532766103744,-0.0676653534173965,-0.0001721719163469,0.0955951660871505,-0.0805902481079101,0.0,2.7991533279418945,-0.9759166717529297,0.0,21.75,0.0,2.897500991821289,-1.089642333984375,0.0,16.75,0.0,2.658247947692871,-0.8707740783691407,0.0,16.0,0.0,2.742648124694824,-0.8854368209838868,0.0,21.75,,,,,,,,,,,,,,,,,,,,,,,,,,,,,,,,,,,
0.0,0.000546513707377,2.951014995574951,-1.084145176410675,-0.000298956525512,0.0223532766103744,-0.0676653534173965,-0.0001721719163469,0.0955951660871505,-0.0805902481079101,0.0,2.864241600036621,-1.1797645568847657,0.0,15.5,0.0,2.628207206726074,-0.9355047225952149,0.0,15.5,0.0,2.7780532836914062,-1.0367134094238282,0.0,20.5,0.0,2.7315616607666016,-0.9083250045776368,0.0,20.75,,,,,,,,,,,,,,,,,,,,,,,,,,,,,,,,,,,
0.0,0.000546513707377,2.951014995574951,-1.084145176410675,-0.000298956525512,0.0223532766103744,-0.0676653534173965,-0.0001721719163469,0.0955951660871505,-0.0805902481079101,0.0,2.884984016418457,-1.160452651977539,0.0,15.75,0.0,2.8030872344970703,-0.9744861602783204,0.0,19.75,0.0,2.666831016540528,-0.8375146865844727,0.0,14.25,0.0,2.74515151977539,-0.8654096603393555,0.0,20.25,,,,,,,,,,,,,,,,,,,,,,,,,,,,,,,,,,,
0.0,0.000546513707377,2.951014995574951,-1.084145176410675,-0.000298956525512,0.0223532766103744,-0.0676653534173965,-0.0001721719163469,0.0955951660871505,-0.0805902481079101,0.0,2.8055906295776367,-1.0020235061645508,0.0,18.75,0.0,2.9075145721435547,-1.1397102355957032,0.0,16.0,0.0,2.7347803115844727,-0.8732774734497071,0.0,19.5,,,,,,,,,,,,,,,,,,,,,,,,,,,,,,,,,,,,,,,,
0.0,0.000546513707377,2.951014995574951,-1.084145176410675,-0.000298956525512,0.0223532766103744,-0.0676653534173965,-0.0001721719163469,0.0955951660871505,-0.0805902481079101,0.0,2.9093027114868164,-1.0849931716918946,0.0,16.25,0.0,2.673625946044922,-0.813911247253418,0.0,15.75,0.0,2.747654914855957,-0.7971027374267579,0.0,21.0,0.0,2.8181076049804688,-0.882575798034668,0.0,19.75,,,,,,,,,,,,,,,,,,,,,,,,,,,,,,,,,,,
0.0,0.000546513707377,2.951014995574951,-1.084145176410675,-0.000298956525512,0.0223532766103744,-0.0676653534173965,-0.0001721719163469,0.0955951660871505,-0.0805902481079101,0.0,2.9189586639404297,-1.0445812225341797,0.0,16.5,0.0,2.8055906295776367,-0.9254911422729493,0.0,20.25,,,,,,,,,,,,,,,,,,,,,,,,,,,,,,,,,,,,,,,,,,,,,
0.0,0.000546513707377,2.951014995574951,-1.084145176410675,-0.000298956525512,0.0223532766103744,-0.0676653534173965,-0.0001721719163469,0.0955951660871505,-0.0805902481079101,0.0,2.936840057373047,-1.0392168045043946,0.0,17.25,0.0,2.838134765625,-0.84931640625,0.0,20.0,,,,,,,,,,,,,,,,,,,,,,,,,,,,,,,,,,,,,,,,,,,,,
0.0,0.000546513707377,2.951014995574951,-1.084145176410675,-0.000298956525512,0.0223532766103744,-0.0676653534173965,-0.0001721719163469,0.0955951660871505,-0.0805902481079101,0.0,2.941489219665528,-1.0528066635131836,0.0,16.25,,,,,,,,,,,,,,,,,,,,,,,,,,,,,,,,,,,,,,,,,,,,,,,,,,
0.0,0.000546513707377,2.951014995574951,-1.084145176410675,-0.000298956525512,0.0223532766103744,-0.0676653534173965,-0.0001721719163469,0.0955951660871505,-0.0805902481079101,0.0,2.945423126220703,-1.0306337356567383,0.0,16.25,0.0,2.835988998413086,-0.8697011947631836,0.0,18.75,,,,,,,,,,,,,,,,,,,,,,,,,,,,,,,,,,,,,,,,,,,,,
0.0,0.000546513707377,2.951014995574951,-1.084145176410675,-0.000298956525512,0.0223532766103744,-0.0676653534173965,-0.0001721719163469,0.0955951660871505,-0.0805902481079101,0.0,2.8363466262817383,-0.8908012390136719,0.0,18.75,,,,,,,,,,,,,,,,,,,,,,,,,,,,,,,,,,,,,,,,,,,,,,,,,,
0.0,0.000546513707377,2.951014995574951,-1.084145176410675,-0.000298956525512,0.0223532766103744,-0.0676653534173965,-0.0001721719163469,0.0955951660871505,-0.0805902481079101,,,,,,,,,,,,,,,,,,,,,,,,,,,,,,,,,,,,,,,,,,,,,,,,,,,,,,,
0.0,0.000546513707377,2.951014995574951,-1.084145176410675,-0.000298956525512,0.0223532766103744,-0.0676653534173965,-0.0001721719163469,0.0955951660871505,-0.0805902481079101,0.0,2.8231143951416016,-0.8840063095092774,0.0,20.25,,,,,,,,,,,,,,,,,,,,,,,,,,,,,,,,,,,,,,,,,,,,,,,,,,
0.0,0.000546513707377,2.951014995574951,-1.084145176410675,-0.000298956525512,0.0223532766103744,-0.0676653534173965,-0.0001721719163469,0.0955951660871505,-0.0805902481079101,,,,,,,,,,,,,,,,,,,,,,,,,,,,,,,,,,,,,,,,,,,,,,,,,,,,,,,
0.0,0.000546513707377,2.951014995574951,-1.084145176410675,-0.000298956525512,0.0223532766103744,-0.0676653534173965,-0.0001721719163469,0.0955951660871505,-0.0805902481079101,0.0,3.049492835998535,-1.1543729782104493,0.0,12.5,,,,,,,,,,,,,,,,,,,,,,,,,,,,,,,,,,,,,,,,,,,,,,,,,,
0.0,0.000546513707377,2.951014995574951,-1.084145176410675,-0.000298956525512,0.0223532766103744,-0.0676653534173965,-0.0001721719163469,0.0955951660871505,-0.0805902481079101,0.0,2.91287899017334,-1.0724761962890625,0.0,17.75,,,,,,,,,,,,,,,,,,,,,,,,,,,,,,,,,,,,,,,,,,,,,,,,,,
0.0,0.000546513707377,2.951014995574951,-1.084145176410675,-0.000298956525512,0.0223532766103744,-0.0676653534173965,-0.0001721719163469,0.0955951660871505,-0.0805902481079101,0.0,2.9096603393554688,-1.0581710815429688,0.0,17.5,,,,,,,,,,,,,,,,,,,,,,,,,,,,,,,,,,,,,,,,,,,,,,,,,,
0.0,0.000546513707377,2.951014995574951,-1.084145176410675,-0.000298956525512,0.0223532766103744,-0.0676653534173965,-0.0001721719163469,0.0955951660871505,-0.0805902481079101,0.0,2.807736396789551,-0.9734132766723633,0.0,22.0,,,,,,,,,,,,,,,,,,,,,,,,,,,,,,,,,,,,,,,,,,,,,,,,,,
0.0,0.000546513707377,2.951014995574951,-1.084145176410675,-0.000298956525512,0.0223532766103744,-0.0676653534173965,-0.0001721719163469,0.0955951660871505,-0.0805902481079101,,,,,,,,,,,,,,,,,,,,,,,,,,,,,,,,,,,,,,,,,,,,,,,,,,,,,,,
0.0,0.000546513707377,2.951014995574951,-1.084145176410675,-0.000298956525512,0.0223532766103744,-0.0676653534173965,-0.0001721719163469,0.0955951660871505,-0.0805902481079101,,,,,,,,,,,,,,,,,,,,,,,,,,,,,,,,,,,,,,,,,,,,,,,,,,,,,,,
0.0,0.000546513707377,2.951014995574951,-1.084145176410675,-0.000298956525512,0.0223532766103744,-0.0676653534173965,-0.0001721719163469,0.0955951660871505,-0.0805902481079101,,,,,,,,,,,,,,,,,,,,,,,,,,,,,,,,,,,,,,,,,,,,,,,,,,,,,,,
0.0,0.000546513707377,2.951014995574951,-1.084145176410675,-0.000298956525512,0.0223532766103744,-0.0676653534173965,-0.0001721719163469,0.0955951660871505,-0.0805902481079101,,,,,,,,,,,,,,,,,,,,,,,,,,,,,,,,,,,,,,,,,,,,,,,,,,,,,,,
0.0,0.000546513707377,2.951014995574951,-1.084145176410675,-0.000298956525512,0.0223532766103744,-0.0676653534173965,-0.0001721719163469,0.0955951660871505,-0.0805902481079101,0.0,2.6532411575317383,-0.8260705947875977,0.0,13.5,0.0,2.729058265686035,-0.7992485046386719,0.0,18.25,0.0,2.8302669525146484,-0.8285739898681641,0.0,16.0,,,,,,,,,,,,,,,,,,,,,,,,,,,,,,,,,,,,,,,,
0.0,0.000546513707377,2.951014995574951,-1.084145176410675,-0.000298956525512,0.0223532766103744,-0.0676653534173965,-0.0001721719163469,0.0955951660871505,-0.0805902481079101,,,,,,,,,,,,,,,,,,,,,,,,,,,,,,,,,,,,,,,,,,,,,,,,,,,,,,,
0.0,0.000546513707377,2.951014995574951,-1.084145176410675,-0.000298956525512,0.0223532766103744,-0.0676653534173965,-0.0001721719163469,0.0955951660871505,-0.0805902481079101,,,,,,,,,,,,,,,,,,,,,,,,,,,,,,,,,,,,,,,,,,,,,,,,,,,,,,,
0.0,0.000546513707377,2.951014995574951,-1.084145176410675,-0.000298956525512,0.0223532766103744,-0.0676653534173965,-0.0001721719163469,0.0955951660871505,-0.0805902481079101,0.0,2.817392349243164,-0.8832910537719727,0.0,20.0,,,,,,,,,,,,,,,,,,,,,,,,,,,,,,,,,,,,,,,,,,,,,,,,,,
0.0,0.000546513707377,2.951014995574951,-1.084145176410675,-0.000298956525512,0.0223532766103744,-0.0676653534173965,-0.0001721719163469,0.0955951660871505,-0.0805902481079101,0.0,2.9153823852539062,-1.0474422454833985,0.0,16.0,0.0,2.818822860717773,-0.891874122619629,0.0,20.0,,,,,,,,,,,,,,,,,,,,,,,,,,,,,,,,,,,,,,,,,,,,,
0.0,0.000546513707377,2.951014995574951,-1.084145176410675,-0.000298956525512,0.0223532766103744,-0.0676653534173965,-0.0001721719163469,0.0955951660871505,-0.0805902481079101,0.0,2.9064416885375977,-1.0621049880981446,0.0,16.25,0.0,2.6890039443969727,-0.754545021057129,0.0,14.75,0.0,2.755880355834961,-0.7967451095581054,0.0,20.75,0.0,2.81524658203125,-0.8911588668823243,0.0,20.25,,,,,,,,,,,,,,,,,,,,,,,,,,,,,,,,,,,
0.0,0.000546513707377,2.951014995574951,-1.084145176410675,-0.000298956525512,0.0223532766103744,-0.0676653534173965,-0.0001721719163469,0.0955951660871505,-0.0805902481079101,0.0,2.76339054107666,-0.7549026489257812,0.0,21.25,0.0,2.8177499771118164,-0.8965232849121094,0.0,20.5,0.0,2.705812454223633,-0.7048347473144532,0.0,15.0,,,,,,,,,,,,,,,,,,,,,,,,,,,,,,,,,,,,,,,,
0.0,0.000546513707377,2.951014995574951,-1.084145176410675,-0.000298956525512,0.0223532766103744,-0.0676653534173965,-0.0001721719163469,0.0955951660871505,-0.0805902481079101,0.0,2.75874137878418,-0.7749298095703125,0.0,21.5,0.0,2.69937515258789,-0.7291534423828125,0.0,15.25,,,,,,,,,,,,,,,,,,,,,,,,,,,,,,,,,,,,,,,,,,,,,
0.0,0.000546513707377,2.951014995574951,-1.084145176410675,-0.000298956525512,0.0223532766103744,-0.0676653534173965,-0.0001721719163469,0.0955951660871505,-0.0805902481079101,,,,,,,,,,,,,,,,,,,,,,,,,,,,,,,,,,,,,,,,,,,,,,,,,,,,,,,
0.0,0.000546513707377,2.951014995574951,-1.084145176410675,-0.000298956525512,0.0223532766103744,-0.0676653534173965,-0.0001721719163469,0.0955951660871505,-0.0805902481079101,0.0,2.9218196868896484,-1.0681846618652344,0.0,13.25,0.0,2.8148889541625977,-0.8865097045898438,0.0,16.5,0.0,2.765178680419922,-0.6722906112670898,0.0,17.25,,,,,,,,,,,,,,,,,,,,,,,,,,,,,,,,,,,,,,,,
0.0,0.000546513707377,2.951014995574951,-1.084145176410675,-0.000298956525512,0.0223532766103744,-0.0676653534173965,-0.0001721719163469,0.0955951660871505,-0.0805902481079101,0.0,2.916812896728516,-1.1050203323364258,0.0,12.75,0.0,2.8270483016967773,-0.8153417587280274,0.0,16.0,0.0,2.7680397033691406,-0.6497600555419922,0.0,17.25,,,,,,,,,,,,,,,,,,,,,,,,,,,,,,,,,,,,,,,,
0.0,0.000546513707377,2.951014995574951,-1.084145176410675,-0.000298956525512,0.0223532766103744,-0.0676653534173965,-0.0001721719163469,0.0955951660871505,-0.0805902481079101,0.0,2.9175281524658203,-1.0603168487548829,0.0,14.25,,,,,,,,,,,,,,,,,,,,,,,,,,,,,,,,,,,,,,,,,,,,,,,,,,
0.0,0.000546513707377,2.951014995574951,-1.084145176410675,-0.000298956525512,0.0223532766103744,-0.0676653534173965,-0.0001721719163469,0.0955951660871505,-0.0805902481079101,0.0,2.9000043869018555,-1.0824897766113282,0.0,14.25,0.0,2.807736396789551,-0.8507469177246094,0.0,18.5,,,,,,,,,,,,,,,,,,,,,,,,,,,,,,,,,,,,,,,,,,,,,
0.0,0.000546513707377,2.951014995574951,-1.084145176410675,-0.000298956525512,0.0223532766103744,-0.0676653534173965,-0.0001721719163469,0.0955951660871505,-0.0805902481079101,,,,,,,,,,,,,,,,,,,,,,,,,,,,,,,,,,,,,,,,,,,,,,,,,,,,,,,
0.0,0.000546513707377,2.951014995574951,-1.084145176410675,-0.000298956525512,0.0223532766103744,-0.0676653534173965,-0.0001721719163469,0.0955951660871505,-0.0805902481079101,0.0,2.914309501647949,-1.006315040588379,0.0,15.0,,,,,,,,,,,,,,,,,,,,,,,,,,,,,,,,,,,,,,,,,,,,,,,,,,
0.0,0.000546513707377,2.951014995574951,-1.084145176410675,-0.000298956525512,0.0223532766103744,-0.0676653534173965,-0.0001721719163469,0.0955951660871505,-0.0805902481079101,,,,,,,,,,,,,,,,,,,,,,,,,,,,,,,,,,,,,,,,,,,,,,,,,,,,,,,
0.0,0.000546513707377,2.951014995574951,-1.084145176410675,-0.000298956525512,0.0223532766103744,-0.0676653534173965,-0.0001721719163469,0.0955951660871505,-0.0805902481079101,,,,,,,,,,,,,,,,,,,,,,,,,,,,,,,,,,,,,,,,,,,,,,,,,,,,,,,
0.0,0.000546513707377,2.951014995574951,-1.084145176410675,-0.000298956525512,0.0223532766103744,-0.0676653534173965,-0.0001721719163469,0.0955951660871505,-0.0805902481079101,,,,,,,,,,,,,,,,,,,,,,,,,,,,,,,,,,,,,,,,,,,,,,,,,,,,,,,
0.0,0.000546513707377,2.951014995574951,-1.084145176410675,-0.000298956525512,0.0223532766103744,-0.0676653534173965,-0.0001721719163469,0.0955951660871505,-0.0805902481079101,,,,,,,,,,,,,,,,,,,,,,,,,,,,,,,,,,,,,,,,,,,,,,,,,,,,,,,
0.0,0.000546513707377,2.951014995574951,-1.084145176410675,-0.000298956525512,0.0223532766103744,-0.0676653534173965,-0.0001721719163469,0.0955951660871505,-0.0805902481079101,0.0,2.9250383377075195,-0.9362199783325196,0.0,13.75,,,,,,,,,,,,,,,,,,,,,,,,,,,,,,,,,,,,,,,,,,,,,,,,,,
0.0,0.000546513707377,2.951014995574951,-1.084145176410675,-0.000298956525512,0.0223532766103744,-0.0676653534173965,-0.0001721719163469,0.0955951660871505,-0.0805902481079101,0.0,2.808094024658203,-0.7956722259521484,0.0,19.5,0.0,2.934694290161133,-0.9326436996459961,0.0,14.5,,,,,,,,,,,,,,,,,,,,,,,,,,,,,,,,,,,,,,,,,,,,,
0.0,0.000546513707377,2.951014995574951,-1.084145176410675,-0.000298956525512,0.0223532766103744,-0.0676653534173965,-0.0001721719163469,0.0955951660871505,-0.0805902481079101,0.0,2.920389175415039,-1.0821321487426758,0.0,14.5,0.0,2.8209686279296875,-0.7788637161254883,0.0,17.5,,,,,,,,,,,,,,,,,,,,,,,,,,,,,,,,,,,,,,,,,,,,,
0.0,0.000546513707377,2.951014995574951,-1.084145176410675,-0.000298956525512,0.0223532766103744,-0.0676653534173965,-0.0001721719163469,0.0955951660871505,-0.0805902481079101,0.0,2.9218196868896484,-1.0481575012207032,0.0,15.0,0.0,2.813100814819336,-0.8811452865600586,0.0,18.75,,,,,,,,,,,,,,,,,,,,,,,,,,,,,,,,,,,,,,,,,,,,,
0.0,0.000546513707377,2.951014995574951,-1.084145176410675,-0.000298956525512,0.0223532766103744,-0.0676653534173965,-0.0001721719163469,0.0955951660871505,-0.0805902481079101,0.0,2.913236618041992,-1.0388591766357422,0.0,14.75,0.0,2.7447938919067383,-0.7845857620239258,0.0,20.75,0.0,2.800583839416504,-0.8750656127929688,0.0,19.25,,,,,,,,,,,,,,,,,,,,,,,,,,,,,,,,,,,,,,,,
0.0,0.000546513707377,2.951014995574951,-1.084145176410675,-0.000298956525512,0.0223532766103744,-0.0676653534173965,-0.0001721719163469,0.0955951660871505,-0.0805902481079101,0.0,2.8967857360839844,-1.0513761520385743,0.0,14.5,0.0,2.6847124099731445,-0.7606246948242187,0.0,14.5,0.0,2.7512311935424805,-0.792095947265625,0.0,20.25,0.0,2.8034448623657227,-0.8704164505004883,0.0,19.5,,,,,,,,,,,,,,,,,,,,,,,,,,,,,,,,,,,
0.0,0.000546513707377,2.951014995574951,-1.084145176410675,-0.000298956525512,0.0223532766103744,-0.0676653534173965,-0.0001721719163469,0.0955951660871505,-0.0805902481079101,0.0,2.913951873779297,-1.046011734008789,0.0,15.25,0.0,2.8231143951416016,-0.8593299865722657,0.0,19.25,0.0,2.69472599029541,-0.6758668899536133,0.0,14.0,0.0,2.7637481689453125,-0.7169940948486329,0.0,19.25,,,,,,,,,,,,,,,,,,,,,,,,,,,,,,,,,,,
0.0,0.000546513707377,2.951014995574951,-1.084145176410675,-0.000298956525512,0.0223532766103744,-0.0676653534173965,-0.0001721719163469,0.0955951660871505,-0.0805902481079101,0.0,2.911806106567383,-1.0560253143310547,0.0,15.5,0.0,2.693653106689453,-0.7341602325439454,0.0,13.75,0.0,2.755165100097656,-0.7835128784179687,0.0,19.75,0.0,2.812027931213379,-0.8911588668823243,0.0,19.0,,,,,,,,,,,,,,,,,,,,,,,,,,,,,,,,,,,
0.0,0.000546513707377,2.951014995574951,-1.084145176410675,-0.000298956525512,0.0223532766103744,-0.0676653534173965,-0.0001721719163469,0.0955951660871505,-0.0805902481079101,0.0,2.9075145721435547,-1.1068084716796875,0.0,15.5,0.0,2.7723312377929688,-0.7770755767822265,0.0,17.5,0.0,2.8384923934936523,-0.8886554718017579,0.0,18.25,,,,,,,,,,,,,,,,,,,,,,,,,,,,,,,,,,,,,,,,
0.0,0.000546513707377,2.951014995574951,-1.084145176410675,-0.000298956525512,0.0223532766103744,-0.0676653534173965,-0.0001721719163469,0.0955951660871505,-0.0805902481079101,0.0,2.91287899017334,-1.1733272552490235,0.0,15.75,0.0,2.818465232849121,-0.9337165832519532,0.0,16.5,0.0,2.6918649673461914,-0.6916025161743165,0.0,12.75,0.0,2.745509147644043,-0.7355907440185547,0.0,18.0,,,,,,,,,,,,,,,,,,,,,,,,,,,,,,,,,,,
0.0,0.000546513707377,2.951014995574951,-1.084145176410675,-0.000298956525512,0.0223532766103744,-0.0676653534173965,-0.0001721719163469,0.0955951660871505,-0.0805902481079101,0.0,2.76339054107666,-0.7667043685913086,0.0,18.5,0.0,2.804875373840332,-0.8865097045898438,0.0,17.75,0.0,2.70688533782959,-0.6665685653686523,0.0,12.25,,,,,,,,,,,,,,,,,,,,,,,,,,,,,,,,,,,,,,,,
0.0,0.000546513707377,2.951014995574951,-1.084145176410675,-0.000298956525512,0.0223532766103744,-0.0676653534173965,-0.0001721719163469,0.0955951660871505,-0.0805902481079101,,,,,,,,,,,,,,,,,,,,,,,,,,,,,,,,,,,,,,,,,,,,,,,,,,,,,,,
0.0,0.000546513707377,2.951014995574951,-1.084145176410675,-0.000298956525512,0.0223532766103744,-0.0676653534173965,-0.0001721719163469,0.0955951660871505,-0.0805902481079101,,,,,,,,,,,,,,,,,,,,,,,,,,,,,,,,,,,,,,,,,,,,,,,,,,,,,,,
0.0,0.000546513707377,2.951014995574951,-1.084145176410675,-0.000298956525512,0.0223532766103744,-0.0676653534173965,-0.0001721719163469,0.0955951660871505,-0.0805902481079101,,,,,,,,,,,,,,,,,,,,,,,,,,,,,,,,,,,,,,,,,,,,,,,,,,,,,,,
0.0,0.000546513707377,2.951014995574951,-1.084145176410675,-0.000298956525512,0.0223532766103744,-0.0676653534173965,-0.0001721719163469,0.0955951660871505,-0.0805902481079101,,,,,,,,,,,,,,,,,,,,,,,,,,,,,,,,,,,,,,,,,,,,,,,,,,,,,,,
0.0,0.000546513707377,2.951014995574951,-1.084145176410675,-0.000298956525512,0.0223532766103744,-0.0676653534173965,-0.0001721719163469,0.0955951660871505,-0.0805902481079101,0.0,2.751946449279785,-0.7813671112060547,0.0,16.5,0.0,2.800226211547852,-0.8961656570434571,0.0,15.75,,,,,,,,,,,,,,,,,,,,,,,,,,,,,,,,,,,,,,,,,,,,,
0.0,0.000546513707377,2.951014995574951,-1.084145176410675,-0.000298956525512,0.0223532766103744,-0.0676653534173965,-0.0001721719163469,0.0955951660871505,-0.0805902481079101,0.0,2.783060073852539,-0.7398822784423829,0.0,16.25,,,,,,,,,,,,,,,,,,,,,,,,,,,,,,,,,,,,,,,,,,,,,,,,,,
0.0,0.000546513707377,2.951014995574951,-1.084145176410675,-0.000298956525512,0.0223532766103744,-0.0676653534173965,-0.0001721719163469,0.0955951660871505,-0.0805902481079101,,,,,,,,,,,,,,,,,,,,,,,,,,,,,,,,,,,,,,,,,,,,,,,,,,,,,,,
0.0,0.000546513707377,2.951014995574951,-1.084145176410675,-0.000298956525512,0.0223532766103744,-0.0676653534173965,-0.0001721719163469,0.0955951660871505,-0.0805902481079101,0.0,2.883553504943848,-1.1128881454467774,0.0,12.75,0.0,2.808094024658203,-0.7917383193969726,0.0,17.5,,,,,,,,,,,,,,,,,,,,,,,,,,,,,,,,,,,,,,,,,,,,,
0.0,0.000546513707377,2.951014995574951,-1.084145176410675,-0.000298956525512,0.0223532766103744,-0.0676653534173965,-0.0001721719163469,0.0955951660871505,-0.0805902481079101,,,,,,,,,,,,,,,,,,,,,,,,,,,,,,,,,,,,,,,,,,,,,,,,,,,,,,,
0.0,0.000546513707377,2.951014995574951,-1.084145176410675,-0.000298956525512,0.0223532766103744,-0.0676653534173965,-0.0001721719163469,0.0955951660871505,-0.0805902481079101,,,,,,,,,,,,,,,,,,,,,,,,,,,,,,,,,,,,,,,,,,,,,,,,,,,,,,,
0.0,0.000546513707377,2.951014995574951,-1.084145176410675,-0.000298956525512,0.0223532766103744,-0.0676653534173965,-0.0001721719163469,0.0955951660871505,-0.0805902481079101,0.0,2.914309501647949,-0.9794929504394532,0.0,13.75,,,,,,,,,,,,,,,,,,,,,,,,,,,,,,,,,,,,,,,,,,,,,,,,,,
0.0,0.000546513707377,2.951014995574951,-1.084145176410675,-0.000298956525512,0.0223532766103744,-0.0676653534173965,-0.0001721719163469,0.0955951660871505,-0.0805902481079101,0.0,2.92360782623291,-0.9580352783203125,0.0,14.5,,,,,,,,,,,,,,,,,,,,,,,,,,,,,,,,,,,,,,,,,,,,,,,,,,
0.0,0.000546513707377,2.951014995574951,-1.084145176410675,-0.000298956525512,0.0223532766103744,-0.0676653534173965,-0.0001721719163469,0.0955951660871505,-0.0805902481079101,0.0,2.938270568847656,-0.9140470504760743,0.0,14.75,,,,,,,,,,,,,,,,,,,,,,,,,,,,,,,,,,,,,,,,,,,,,,,,,,
0.0,0.000546513707377,2.951014995574951,-1.084145176410675,-0.000298956525512,0.0223532766103744,-0.0676653534173965,-0.0001721719163469,0.0955951660871505,-0.0805902481079101,0.0,2.954363822937012,-0.9759166717529297,0.0,15.0,0.0,2.6847124099731445,-0.7763603210449219,0.0,13.0,0.0,2.7512311935424805,-0.7695653915405273,0.0,18.75,0.0,2.834200859069824,-0.8289316177368165,0.0,17.5,,,,,,,,,,,,,,,,,,,,,,,,,,,,,,,,,,,
0.0,0.000546513707377,2.951014995574951,-1.084145176410675,-0.000298956525512,0.0223532766103744,-0.0676653534173965,-0.0001721719163469,0.0955951660871505,-0.0805902481079101,0.0,2.898573875427246,-1.1060932159423829,0.0,12.75,0.0,2.6807785034179688,-0.7720687866210937,0.0,12.75,0.0,2.745509147644043,-0.7752874374389648,0.0,18.25,0.0,2.8034448623657227,-0.882575798034668,0.0,16.75,,,,,,,,,,,,,,,,,,,,,,,,,,,,,,,,,,,
0.0,0.000546513707377,2.951014995574951,-1.084145176410675,-0.000298956525512,0.0223532766103744,-0.0676653534173965,-0.0001721719163469,0.0955951660871505,-0.0805902481079101,0.0,2.6847124099731445,-0.7498958587646484,0.0,13.25,0.0,2.741575241088867,-0.7602670669555665,0.0,18.75,0.0,2.784132957458496,-0.8403757095336915,0.0,16.5,,,,,,,,,,,,,,,,,,,,,,,,,,,,,,,,,,,,,,,,
0.0,0.000546513707377,2.951014995574951,-1.084145176410675,-0.000298956525512,0.0223532766103744,-0.0676653534173965,-0.0001721719163469,0.0955951660871505,-0.0805902481079101,0.0,2.933979034423828,-1.0263422012329102,0.0,13.75,0.0,2.687931060791016,-0.7481077194213868,0.0,13.5,0.0,2.7480125427246094,-0.7552602767944336,0.0,19.0,0.0,2.8138160705566406,-0.8350112915039063,0.0,17.25,,,,,,,,,,,,,,,,,,,,,,,,,,,,,,,,,,,
0.0,0.000546513707377,2.951014995574951,-1.084145176410675,-0.000298956525512,0.0223532766103744,-0.0676653534173965,-0.0001721719163469,0.0955951660871505,-0.0805902481079101,0.0,2.9497146606445312,-1.0070302963256836,0.0,13.25,0.0,2.681493759155273,-0.7795789718627929,0.0,14.0,0.0,2.72369384765625,-0.7820823669433594,0.0,19.25,0.0,2.809882164001465,-0.8053281784057618,0.0,16.25,,,,,,,,,,,,,,,,,,,,,,,,,,,,,,,,,,,
0.0,0.000546513707377,2.951014995574951,-1.084145176410675,-0.000298956525512,0.0223532766103744,-0.0676653534173965,-0.0001721719163469,0.0955951660871505,-0.0805902481079101,0.0,2.827763557434082,-1.0349252700805665,0.0,15.5,0.0,2.965092658996582,-1.0588863372802735,0.0,14.5,0.0,2.742648124694824,-0.858614730834961,0.0,15.25,,,,,,,,,,,,,,,,,,,,,,,,,,,,,,,,,,,,,,,,
0.0,0.000546513707377,2.951014995574951,-1.084145176410675,-0.000298956525512,0.0223532766103744,-0.0676653534173965,-0.0001721719163469,0.0955951660871505,-0.0805902481079101,0.0,2.816319465637207,-0.9598234176635743,0.0,16.75,0.0,2.937555313110352,-1.0871389389038086,0.0,14.25,0.0,2.652168273925781,-0.8239248275756836,0.0,12.5,0.0,2.7315616607666016,-0.8629062652587891,0.0,17.5,,,,,,,,,,,,,,,,,,,,,,,,,,,,,,,,,,,
0.0,0.000546513707377,2.951014995574951,-1.084145176410675,-0.000298956525512,0.0223532766103744,-0.0676653534173965,-0.0001721719163469,0.0955951660871505,-0.0805902481079101,0.0,2.945423126220703,-1.0721185684204102,0.0,13.75,0.0,2.670407295227051,-0.7788637161254883,0.0,13.75,0.0,2.7222633361816406,-0.7960298538208008,0.0,18.75,0.0,2.8084516525268555,-0.870058822631836,0.0,16.0,,,,,,,,,,,,,,,,,,,,,,,,,,,,,,,,,,,
0.0,0.000546513707377,2.951014995574951,-1.084145176410675,-0.000298956525512,0.0223532766103744,-0.0676653534173965,-0.0001721719163469,0.0955951660871505,-0.0805902481079101,0.0,2.6761293411254883,-0.6758668899536133,0.0,12.25,0.0,2.7011632919311523,-0.6826618194580079,0.0,16.5,,,,,,,,,,,,,,,,,,,,,,,,,,,,,,,,,,,,,,,,,,,,,
0.0,0.000546513707377,2.951014995574951,-1.084145176410675,-0.000298956525512,0.0223532766103744,-0.0676653534173965,-0.0001721719163469,0.0955951660871505,-0.0805902481079101,0.0,2.6911497116088867,-0.7448890686035157,0.0,15.75,,,,,,,,,,,,,,,,,,,,,,,,,,,,,,,,,,,,,,,,,,,,,,,,,,
0.0,0.000546513707377,2.951014995574951,-1.084145176410675,-0.000298956525512,0.0223532766103744,-0.0676653534173965,-0.0001721719163469,0.0955951660871505,-0.0805902481079101,0.0,2.980828285217285,-1.0263422012329102,0.0,12.5,,,,,,,,,,,,,,,,,,,,,,,,,,,,,,,,,,,,,,,,,,,,,,,,,,
0.0,0.000546513707377,2.951014995574951,-1.084145176410675,-0.000298956525512,0.0223532766103744,-0.0676653534173965,-0.0001721719163469,0.0955951660871505,-0.0805902481079101,0.0,2.858519554138184,-0.8096197128295899,0.0,17.5,0.0,2.9987096786499023,-0.9734132766723633,0.0,15.75,,,,,,,,,,,,,,,,,,,,,,,,,,,,,,,,,,,,,,,,,,,,,
0.0,0.000546513707377,2.951014995574951,-1.084145176410675,-0.000298956525512,0.0223532766103744,-0.0676653534173965,-0.0001721719163469,0.0955951660871505,-0.0805902481079101,0.0,3.013730049133301,-0.994870948791504,0.0,15.25,0.0,2.680063247680664,-0.7305839538574219,0.0,14.0,0.0,3.164291381835937,-0.9551742553710938,0.0,13.25,0.0,2.681493759155273,-0.7305839538574219,0.0,14.0,0.0,2.733707427978516,-0.7119873046875,0.0,18.75,0.0,2.8510093688964844,-0.7388093948364258,0.0,15.75,,,,,,,,,,,,,,,,,,,,,,,,,
0.0,0.000546513707377,2.951014995574951,-1.084145176410675,-0.000298956525512,0.0223532766103744,-0.0676653534173965,-0.0001721719163469,0.0955951660871505,-0.0805902481079101,0.0,2.8374195098876958,-0.7992485046386719,0.0,15.75,0.0,3.0205249786376958,-0.9487369537353516,0.0,14.75,0.0,3.1757354736328125,-0.9862878799438477,0.0,13.5,0.0,2.685427665710449,-0.702688980102539,0.0,14.0,0.0,2.738356590270996,-0.6840923309326172,0.0,18.5,,,,,,,,,,,,,,,,,,,,,,,,,,,,,,
0.0,0.000546513707377,2.951014995574951,-1.084145176410675,-0.000298956525512,0.0223532766103744,-0.0676653534173965,-0.0001721719163469,0.0955951660871505,-0.0805902481079101,0.0,2.755165100097656,-0.7538297653198243,0.0,17.75,0.0,2.8324127197265625,-0.8443096160888672,0.0,16.75,0.0,2.9976367950439453,-0.9333589553833008,0.0,14.0,0.0,3.1843185424804688,-0.9258487701416016,0.0,12.5,0.0,2.689361572265625,-0.7051923751831054,0.0,12.5,,,,,,,,,,,,,,,,,,,,,,,,,,,,,,
0.0,0.000546513707377,2.951014995574951,-1.084145176410675,-0.000298956525512,0.0223532766103744,-0.0676653534173965,-0.0001721719163469,0.0955951660871505,-0.0805902481079101,0.0,2.688288688659668,-0.7581212997436523,0.0,13.0,0.0,2.758026123046875,-0.802467155456543,0.0,19.0,0.0,2.819180488586426,-0.8704164505004883,0.0,18.25,0.0,2.9772520065307617,-0.9219148635864258,0.0,14.25,0.0,3.172159194946289,-0.9422996520996094,0.0,12.25,,,,,,,,,,,,,,,,,,,,,,,,,,,,,,
0.0,0.000546513707377,2.951014995574951,-1.084145176410675,-0.000298956525512,0.0223532766103744,-0.0676653534173965,-0.0001721719163469,0.0955951660871505,-0.0805902481079101,0.0,2.760171890258789,-0.7860162734985351,0.0,18.75,0.0,2.8138160705566406,-0.8550384521484375,0.0,18.0,0.0,2.9654502868652344,-0.9498098373413086,0.0,13.25,0.0,2.6918649673461914,-0.7273653030395508,0.0,12.75,,,,,,,,,,,,,,,,,,,,,,,,,,,,,,,,,,,
0.0,0.000546513707377,2.951014995574951,-1.084145176410675,-0.000298956525512,0.0223532766103744,-0.0676653534173965,-0.0001721719163469,0.0955951660871505,-0.0805902481079101,0.0,2.6929378509521484,-0.7448890686035157,0.0,12.75,0.0,2.7616024017333984,-0.7981756210327148,0.0,18.75,0.0,2.811312675476074,-0.8965232849121094,0.0,18.5,0.0,2.95257568359375,-0.9680488586425782,0.0,14.0,,,,,,,,,,,,,,,,,,,,,,,,,,,,,,,,,,,
0.0,0.000546513707377,2.951014995574951,-1.084145176410675,-0.000298956525512,0.0223532766103744,-0.0676653534173965,-0.0001721719163469,0.0955951660871505,-0.0805902481079101,0.0,3.114938735961914,-1.0545948028564454,0.0,12.25,0.0,2.7036666870117188,-0.7549026489257812,0.0,14.75,0.0,2.762317657470703,-0.792095947265625,0.0,21.0,0.0,2.8134584426879883,-0.8611181259155274,0.0,20.25,0.0,2.938270568847656,-0.9633996963500977,0.0,15.5,,,,,,,,,,,,,,,,,,,,,,,,,,,,,,
0.0,0.000546513707377,2.951014995574951,-1.084145176410675,-0.000298956525512,0.0223532766103744,-0.0676653534173965,-0.0001721719163469,0.0955951660871505,-0.0805902481079101,0.0,2.908587455749512,-1.0338523864746094,0.0,13.0,0.0,2.69937515258789,-0.7355907440185547,0.0,14.25,0.0,2.7494430541992188,-0.7642009735107422,0.0,20.25,0.0,2.802729606628418,-0.7895925521850586,0.0,18.5,,,,,,,,,,,,,,,,,,,,,,,,,,,,,,,,,,,
0.0,0.000546513707377,2.951014995574951,-1.084145176410675,-0.000298956525512,0.0223532766103744,-0.0676653534173965,-0.0001721719163469,0.0955951660871505,-0.0805902481079101,0.0,2.74515151977539,-0.7523992538452148,0.0,16.75,0.0,2.811312675476074,-0.8017518997192383,0.0,15.0,,,,,,,,,,,,,,,,,,,,,,,,,,,,,,,,,,,,,,,,,,,,,
0.0,0.000546513707377,2.951014995574951,-1.084145176410675,-0.000298956525512,0.0223532766103744,-0.0676653534173965,-0.0001721719163469,0.0955951660871505,-0.0805902481079101,,,,,,,,,,,,,,,,,,,,,,,,,,,,,,,,,,,,,,,,,,,,,,,,,,,,,,,
0.0,0.000546513707377,2.951014995574951,-1.084145176410675,-0.000298956525512,0.0223532766103744,-0.0676653534173965,-0.0001721719163469,0.0955951660871505,-0.0805902481079101,,,,,,,,,,,,,,,,,,,,,,,,,,,,,,,,,,,,,,,,,,,,,,,,,,,,,,,
0.0,0.000546513707377,2.951014995574951,-1.084145176410675,-0.000298956525512,0.0223532766103744,-0.0676653534173965,-0.0001721719163469,0.0955951660871505,-0.0805902481079101,,,,,,,,,,,,,,,,,,,,,,,,,,,,,,,,,,,,,,,,,,,,,,,,,,,,,,,
0.0,0.000546513707377,2.951014995574951,-1.084145176410675,-0.000298956525512,0.0223532766103744,-0.0676653534173965,-0.0001721719163469,0.0955951660871505,-0.0805902481079101,,,,,,,,,,,,,,,,,,,,,,,,,,,,,,,,,,,,,,,,,,,,,,,,,,,,,,,
0.0,0.000546513707377,2.951014995574951,-1.084145176410675,-0.000298956525512,0.0223532766103744,-0.0676653534173965,-0.0001721719163469,0.0955951660871505,-0.0805902481079101,,,,,,,,,,,,,,,,,,,,,,,,,,,,,,,,,,,,,,,,,,,,,,,,,,,,,,,
0.0,0.000546513707377,2.951014995574951,-1.084145176410675,-0.000298956525512,0.0223532766103744,-0.0676653534173965,-0.0001721719163469,0.0955951660871505,-0.0805902481079101,,,,,,,,,,,,,,,,,,,,,,,,,,,,,,,,,,,,,,,,,,,,,,,,,,,,,,,
0.0,0.000546513707377,2.951014995574951,-1.084145176410675,-0.000298956525512,0.0223532766103744,-0.0676653534173965,-0.0001721719163469,0.0955951660871505,-0.0805902481079101,,,,,,,,,,,,,,,,,,,,,,,,,,,,,,,,,,,,,,,,,,,,,,,,,,,,,,,
0.0,0.000546513707377,2.951014995574951,-1.084145176410675,-0.000298956525512,0.0223532766103744,-0.0676653534173965,-0.0001721719163469,0.0955951660871505,-0.0805902481079101,,,,,,,,,,,,,,,,,,,,,,,,,,,,,,,,,,,,,,,,,,,,,,,,,,,,,,,
0.0,0.000546513707377,2.951014995574951,-1.084145176410675,-0.000298956525512,0.0223532766103744,-0.0676653534173965,-0.0001721719163469,0.0955951660871505,-0.0805902481079101,,,,,,,,,,,,,,,,,,,,,,,,,,,,,,,,,,,,,,,,,,,,,,,,,,,,,,,
0.0,0.000546513707377,2.951014995574951,-1.084145176410675,-0.000298956525512,0.0223532766103744,-0.0676653534173965,-0.0001721719163469,0.0955951660871505,-0.0805902481079101,,,,,,,,,,,,,,,,,,,,,,,,,,,,,,,,,,,,,,,,,,,,,,,,,,,,,,,
0.0,0.000546513707377,2.951014995574951,-1.084145176410675,-0.000298956525512,0.0223532766103744,-0.0676653534173965,-0.0001721719163469,0.0955951660871505,-0.0805902481079101,,,,,,,,,,,,,,,,,,,,,,,,,,,,,,,,,,,,,,,,,,,,,,,,,,,,,,,
0.0,0.000546513707377,2.951014995574951,-1.084145176410675,-0.000298956525512,0.0223532766103744,-0.0676653534173965,-0.0001721719163469,0.0955951660871505,-0.0805902481079101,,,,,,,,,,,,,,,,,,,,,,,,,,,,,,,,,,,,,,,,,,,,,,,,,,,,,,,
0.0,0.000546513707377,2.951014995574951,-1.084145176410675,-0.000298956525512,0.0223532766103744,-0.0676653534173965,-0.0001721719163469,0.0955951660871505,-0.0805902481079101,,,,,,,,,,,,,,,,,,,,,,,,,,,,,,,,,,,,,,,,,,,,,,,,,,,,,,,
0.0,0.000546513707377,2.951014995574951,-1.084145176410675,-0.000298956525512,0.0223532766103744,-0.0676653534173965,-0.0001721719163469,0.0955951660871505,-0.0805902481079101,,,,,,,,,,,,,,,,,,,,,,,,,,,,,,,,,,,,,,,,,,,,,,,,,,,,,,,
0.0,0.000546513707377,2.951014995574951,-1.084145176410675,-0.000298956525512,0.0223532766103744,-0.0676653534173965,-0.0001721719163469,0.0955951660871505,-0.0805902481079101,,,,,,,,,,,,,,,,,,,,,,,,,,,,,,,,,,,,,,,,,,,,,,,,,,,,,,,
0.0,0.000546513707377,2.951014995574951,-1.084145176410675,-0.000298956525512,0.0223532766103744,-0.0676653534173965,-0.0001721719163469,0.0955951660871505,-0.0805902481079101,,,,,,,,,,,,,,,,,,,,,,,,,,,,,,,,,,,,,,,,,,,,,,,,,,,,,,,
0.0,0.000546513707377,2.951014995574951,-1.084145176410675,-0.000298956525512,0.0223532766103744,-0.0676653534173965,-0.0001721719163469,0.0955951660871505,-0.0805902481079101,0.0,2.7691125869750977,-0.824282455444336,0.0,15.0,,,,,,,,,,,,,,,,,,,,,,,,,,,,,,,,,,,,,,,,,,,,,,,,,,
0.0,0.000546513707377,2.951014995574951,-1.084145176410675,-0.000298956525512,0.0223532766103744,-0.0676653534173965,-0.0001721719163469,0.0955951660871505,-0.0805902481079101,0.0,2.764821052551269,-0.8500316619873047,0.0,15.75,0.0,2.795577049255371,-0.9269216537475586,0.0,15.75,,,,,,,,,,,,,,,,,,,,,,,,,,,,,,,,,,,,,,,,,,,,,
0.0,0.000546513707377,2.951014995574951,-1.084145176410675,-0.000298956525512,0.0223532766103744,-0.0676653534173965,-0.0001721719163469,0.0955951660871505,-0.0805902481079101,0.0,2.812743186950684,-0.952313232421875,0.0,16.0,0.0,2.7701854705810547,-0.8614757537841797,0.0,15.0,,,,,,,,,,,,,,,,,,,,,,,,,,,,,,,,,,,,,,,,,,,,,
0.0,0.000546513707377,2.951014995574951,-1.084145176410675,-0.000298956525512,0.0223532766103744,-0.0676653534173965,-0.0001721719163469,0.0955951660871505,-0.0805902481079101,0.0,2.840280532836914,-1.0098913192749024,0.0,16.5,0.0,2.977609634399414,-1.0456541061401368,0.0,14.25,0.0,2.773046493530273,-0.9029605865478516,0.0,15.0,,,,,,,,,,,,,,,,,,,,,,,,,,,,,,,,,,,,,,,,
0.0,0.000546513707377,2.951014995574951,-1.084145176410675,-0.000298956525512,0.0223532766103744,-0.0676653534173965,-0.0001721719163469,0.0955951660871505,-0.0805902481079101,0.0,2.135753631591797,-1.4150836944580079,0.0,13.25,0.0,2.8063058853149414,-0.9630420684814454,0.0,19.75,0.0,2.9314756393432617,-1.0467269897460938,0.0,14.0,0.0,2.786993980407715,-0.7895925521850586,0.0,19.25,,,,,,,,,,,,,,,,,,,,,,,,,,,,,,,,,,,
0.0,0.0005138315027579,2.94027042388916,-1.0672151923179627,-0.0003350407350808,0.00371690467,-0.037685252726078,-0.0001909015991259,0.0699692219495773,-0.0526352599263191,0.0,2.7108192443847656,-0.9315708160400391,-0.1917510479688644,15.25,0.0,2.655029296875,-0.8832910537719727,-0.1917510479688644,13.25,0.0,2.701878547668457,-0.8847215652465821,-0.1917510479688644,18.25,0.0,2.154707908630371,-1.4039972305297852,0.0,13.25,0.0,2.828836441040039,-1.0066726684570313,0.0,20.0,0.0,2.9747486114501958,-1.042793083190918,0.0,17.0,0.0,2.631068229675293,-0.8164146423339844,0.0,12.75,0.0,2.7801990509033203,-0.7913806915283204,0.0,19.25,,,,,,,,,,,,,,,
0.0,0.000484805816086,2.929486989974976,-1.0571501135826111,-0.0003685647097881,-0.0137701891362667,-0.0202213823795318,-0.000208577082958,0.0478147715330123,-0.0360689759254455,0.0,2.651453018188477,-0.9251335144042969,-0.1917510479688644,19.0,0.0,2.6786327362060547,-0.9412267684936524,-0.1917510479688644,23.75,0.0,2.7015209197998047,-0.937650489807129,-0.1917510479688644,20.0,0.0,2.224087715148926,-1.397559928894043,0.0,14.5,0.0,2.766251564025879,-1.0045269012451172,0.0,23.25,0.0,2.933621406555176,-1.064608383178711,0.0,17.25,0.0,2.71761417388916,-0.9140470504760743,0.0,25.0,,,,,,,,,,,,,,,,,,,,
0.0,0.0004770701052621,2.922714710235596,-1.0603137493133545,-0.0003735904465429,-0.0301239900290966,-0.0236638113856315,-0.0002101702411891,0.0243622902780771,-0.0361784696578979,0.0,2.604961395263672,-1.1361339569091797,-0.5752531439065933,14.0,0.0,2.242684364318848,-1.3811090469360352,0.0,14.25,0.0,2.7115345001220703,-0.9229877471923829,0.0,25.5,0.0,2.759099006652832,-1.0048845291137696,0.0,23.0,0.0,2.942204475402832,-1.0392168045043946,0.0,16.75,,,,,,,,,,,,,,,,,,,,,,,,,,,,,,
0.0,0.0004627211892511,2.909390449523926,-1.0656587958335877,-0.000387168227462,-0.0575154051184654,-0.0305272936820983,-0.00021631999698,-0.0121439602226018,-0.0380851216614246,0.0,2.4858713150024414,-1.1386373519897461,-0.5752531439065933,12.5,0.0,2.587437629699707,-1.0810592651367188,-0.3835020959377289,13.5,0.0,2.226591110229492,-1.4043548583984375,0.0,15.0,0.0,2.619624137878418,-0.9340742111206055,0.0,19.5,0.0,2.7626752853393555,-0.9973743438720704,0.0,22.0,0.0,2.953648567199707,-1.0445812225341797,0.0,16.25,0.0,2.704739570617676,-0.914762306213379,0.0,24.5,,,,,,,,,,,,,,,,,,,,
0.0,0.0004627211892511,2.909390449523926,-1.0656587958335877,-0.000387168227462,-0.0575154051184654,-0.0305272936820983,-0.00021631999698,-0.0121439602226018,-0.0380851216614246,0.0,2.238035202026367,-1.3825395584106444,0.0,15.0,0.0,2.613186836242676,-0.9473064422607422,0.0,19.5,0.0,2.700448036193848,-0.9172657012939454,0.0,24.75,0.0,2.7784109115600586,-0.973055648803711,0.0,22.0,0.0,2.971172332763672,-1.042793083190918,0.0,17.5,,,,,,,,,,,,,,,,,,,,,,,,,,,,,,
0.0,0.0004627211892511,2.909390449523926,-1.0656587958335877,-0.000387168227462,-0.0575154051184654,-0.0305272936820983,-0.00021631999698,-0.0121439602226018,-0.0380851216614246,0.0,2.2580623626708984,-1.3693073272705079,0.0,15.0,0.0,2.6900768280029297,-0.9333589553833008,0.0,24.5,0.0,2.750515937805176,-1.0034540176391602,0.0,21.25,,,,,,,,,,,,,,,,,,,,,,,,,,,,,,,,,,,,,,,,
0.0,0.0004627211892511,2.909390449523926,-1.0656587958335877,-0.000387168227462,-0.0575154051184654,-0.0305272936820983,-0.00021631999698,-0.0121439602226018,-0.0380851216614246,0.0,2.2290945053100586,-1.3825395584106444,0.0,16.25,0.0,2.675771713256836,-0.9537437438964844,0.0,24.0,0.0,2.755880355834961,-1.007387924194336,0.0,20.5,,,,,,,,,,,,,,,,,,,,,,,,,,,,,,,,,,,,,,,,
0.0,0.0004534578474704,2.9069085121154785,-1.0713401317596436,-0.0004026689566671,-0.0565978735685348,-0.0421131365001201,-0.0002256378938909,-0.0059186611324548,-0.0495036318898201,0.0,2.608895301818848,-1.2019374847412108,0.1917510479688644,12.5,0.0,2.676844596862793,-0.9884336471557618,0.0,24.0,0.0,2.758383750915528,-1.0452964782714844,0.0,21.5,,,,,,,,,,,,,,,,,,,,,,,,,,,,,,,,,,,,,,,,
0.0,0.0004534578474704,2.9069085121154785,-1.0713401317596436,-0.0004026689566671,-0.0565978735685348,-0.0421131365001201,-0.0002256378938909,-0.0059186611324548,-0.0495036318898201,0.0,2.455472946166992,-1.2255409240722657,0.0,19.25,0.0,2.6532411575317383,-1.0424354553222657,0.0,21.75,0.0,2.7905702590942383,-1.0234811782836915,0.0,19.5,,,,,,,,,,,,,,,,,,,,,,,,,,,,,,,,,,,,,,,,
0.0,0.0004534578474704,2.9069085121154785,-1.0713401317596436,-0.0004026689566671,-0.0565978735685348,-0.0421131365001201,-0.0002256378938909,-0.0059186611324548,-0.0495036318898201,0.0,2.2008419036865234,-1.3989904403686524,0.0,16.5,0.0,2.5892257690429688,-1.211235809326172,0.0,18.5,0.0,2.7658939361572266,-1.1497238159179688,0.0,17.0,,,,,,,,,,,,,,,,,,,,,,,,,,,,,,,,,,,,,,,,
0.0,0.0004534578474704,2.9069085121154785,-1.0713401317596436,-0.0004026689566671,-0.0565978735685348,-0.0421131365001201,-0.0002256378938909,-0.0059186611324548,-0.0495036318898201,0.0,2.5767087936401367,-1.2087324142456055,0.0,14.25,0.0,2.8395652770996094,-1.0767677307128907,0.0,14.75,,,,,,,,,,,,,,,,,,,,,,,,,,,,,,,,,,,,,,,,,,,,,
0.0,0.0004534578474704,2.9069085121154785,-1.0713401317596436,-0.0004026689566671,-0.0565978735685348,-0.0421131365001201,-0.0002256378938909,-0.0059186611324548,-0.0495036318898201,0.0,2.1861791610717773,-1.3811090469360352,0.0,17.5,0.0,2.2526979446411133,-1.4469125747680665,0.0,17.25,0.0,2.541661262512207,-1.2688138961791993,0.0,14.75,0.0,2.837061882019043,-1.088569450378418,0.0,15.0,0.0,2.99227237701416,-1.0120370864868165,0.0,13.25,,,,,,,,,,,,,,,,,,,,,,,,,,,,,,
0.0,0.0004534578474704,2.9069085121154785,-1.0713401317596436,-0.0004026689566671,-0.0565978735685348,-0.0421131365001201,-0.0002256378938909,-0.0059186611324548,-0.0495036318898201,0.0,2.588510513305664,-1.2012222290039063,0.0,14.5,0.0,2.808809280395508,-1.1279085159301758,0.0,15.0,,,,,,,,,,,,,,,,,,,,,,,,,,,,,,,,,,,,,,,,,,,,,
0.0,0.0004432688583619,2.9068429470062256,-1.073844301700592,-0.0004168207524344,-0.053287599235773,-0.0477602817118167,-0.0002337865735171,0.0013312203809618,-0.0556452758610248,0.0,2.8181076049804688,-1.137564468383789,0.1917510479688644,12.25,0.0,2.1740198135375977,-1.3864734649658204,0.0,18.0,0.0,2.269148826599121,-1.432607460021973,0.0,17.25,0.0,2.592802047729492,-1.2015798568725586,0.0,16.0,0.0,2.8030872344970703,-1.0935762405395508,0.0,16.0,,,,,,,,,,,,,,,,,,,,,,,,,,,,,,
0.0,0.0004432688583619,2.9068429470062256,-1.073844301700592,-0.0004168207524344,-0.053287599235773,-0.0477602817118167,-0.0002337865735171,0.0013312203809618,-0.0556452758610248,0.0,2.173304557800293,-1.3982751846313477,0.0,17.25,0.0,2.8095245361328125,-1.0789134979248047,0.0,16.0,,,,,,,,,,,,,,,,,,,,,,,,,,,,,,,,,,,,,,,,,,,,,
0.0,0.0004432688583619,2.9068429470062256,-1.073844301700592,-0.0004168207524344,-0.053287599235773,-0.0477602817118167,-0.0002337865735171,0.0013312203809618,-0.0556452758610248,0.0,2.7916431427001958,-1.1100271224975586,0.0,15.5,,,,,,,,,,,,,,,,,,,,,,,,,,,,,,,,,,,,,,,,,,,,,,,,,,
0.0,0.0004432688583619,2.9068429470062256,-1.073844301700592,-0.0004168207524344,-0.053287599235773,-0.0477602817118167,-0.0002337865735171,0.0013312203809618,-0.0556452758610248,,,,,,,,,,,,,,,,,,,,,,,,,,,,,,,,,,,,,,,,,,,,,,,,,,,,,,,
0.0,0.0004336390120442,2.9069647789001465,-1.0742120027542115,-0.0004305348265916,-0.0494205467402935,-0.0498489700257778,-0.0002417560026515,0.0091344285756349,-0.0588577836751937,0.0,2.809882164001465,-1.0570981979370118,0.1917510479688644,12.25,,,,,,,,,,,,,,,,,,,,,,,,,,,,,,,,,,,,,,,,,,,,,,,,,,
0.0,0.0004233715881127,2.908589124679565,-1.0744705080986023,-0.0004429469991009,-0.0446563810110092,-0.0512037277221679,-0.0002486317534931,0.016646709293127,-0.061097539961338,0.0,2.9768943786621094,-1.0785558700561524,0.1917510479688644,12.75,,,,,,,,,,,,,,,,,,,,,,,,,,,,,,,,,,,,,,,,,,,,,,,,,,
0.0,0.000406285689678,2.888347148895264,-1.1147327899932862,-0.0004871928831562,-0.0584661737084388,-0.127310037612915,-0.0002771735016722,0.0229408144950866,-0.130651444196701,0.0,2.2569894790649414,-1.3896921157836915,0.1917510479688644,13.5,0.0,2.282381057739258,-1.4497735977172852,0.1917510479688644,16.75,0.0,2.3370981216430664,-1.4991262435913086,0.1917510479688644,12.75,,,,,,,,,,,,,,,,,,,,,,,,,,,,,,,,,,,,,,,,
0.0,0.0003980022156611,2.871617555618286,-1.1373281955718995,-0.0005061759147793,-0.080774649977684,-0.1670638918876648,-0.000288828916382,0.0041678771376609,-0.1637434959411621,0.0,2.1876096725463867,-1.4147260665893557,-0.1917510479688644,17.25,0.0,2.225518226623535,-1.445482063293457,-0.1917510479688644,17.75,0.0,2.170443534851074,-1.4047124862670899,0.0,16.25,,,,,,,,,,,,,,,,,,,,,,,,,,,,,,,,,,,,,,,,
0.0,0.0003881849406752,2.858505249023437,-1.159078049659729,-0.000534430204425,-0.0888958796858787,-0.2101315557956695,-0.0003073367697652,0.0093602808192372,-0.204386293888092,0.0,2.184391021728516,-1.411149787902832,0.1917510479688644,14.25,0.0,2.249479293823242,-1.4243820190429688,0.1917510479688644,14.75,0.0,2.88248062133789,-1.0703304290771485,0.0,14.75,0.0,2.977609634399414,-1.0610321044921875,0.0,13.25,,,,,,,,,,,,,,,,,,,,,,,,,,,,,,,,,,,
0.0,0.0003702881804201,2.8468940258026123,-1.1870068192481995,-0.0005826219567097,-0.0837420746684074,-0.2712588012218475,-0.000339078658726,0.0408555902540683,-0.2671349942684173,0.0,2.194404602050781,-1.5534856796264649,0.7670041918754578,14.5,0.0,2.19118595123291,-1.465151596069336,0.7670041918754578,12.75,0.0,2.826690673828125,-1.1286237716674805,-0.1917510479688644,12.0,0.0,2.884984016418457,-1.087496566772461,0.0,15.0,0.0,2.9947757720947266,-1.0477998733520508,0.0,13.5,,,,,,,,,,,,,,,,,,,,,,,,,,,,,,
0.0,0.0003662857343442,2.841012477874756,-1.193383264541626,-0.0005901075201109,-0.091725617647171,-0.2819887995719909,-0.0003435038379393,0.0336829796433448,-0.2755693793296814,0.0,2.3142099380493164,-1.4018514633178711,-0.1917510479688644,14.75,0.0,2.4472475051879883,-1.4723041534423829,0.0,12.25,0.0,2.9010772705078125,-1.096794891357422,0.0,15.0,0.0,3.0030012130737305,-1.0477998733520508,0.0,15.25,,,,,,,,,,,,,,,,,,,,,,,,,,,,,,,,,,,
0.0,0.0003662857343442,2.841012477874756,-1.193383264541626,-0.0005901075201109,-0.091725617647171,-0.2819887995719909,-0.0003435038379393,0.0336829796433448,-0.2755693793296814,0.0,2.898573875427246,-1.0724761962890625,0.0,14.5,0.0,3.0194520950317383,-1.0195472717285157,0.0,15.0,,,,,,,,,,,,,,,,,,,,,,,,,,,,,,,,,,,,,,,,,,,,,
0.0,0.0003662857343442,2.841012477874756,-1.193383264541626,-0.0005901075201109,-0.091725617647171,-0.2819887995719909,-0.0003435038379393,0.0336829796433448,-0.2755693793296814,0.0,2.881050109863281,-1.1318424224853516,0.0,12.75,0.0,3.0258893966674805,-1.0288455963134766,0.0,13.5,,,,,,,,,,,,,,,,,,,,,,,,,,,,,,,,,,,,,,,,,,,,,
0.0,0.0003335700312163,2.829800844192505,-1.2093428254127503,-0.0006518870359286,-0.08747299015522,-0.322417289018631,-0.0003817934484686,0.0610004886984825,-0.3203298449516296,0.0,2.2001266479492188,-1.4529922485351563,0.3835020959377289,17.75,0.0,2.2537708282470703,-1.443336296081543,0.3835020959377289,19.0,0.0,2.4368762969970703,-1.3925531387329102,-0.1917510479688644,14.5,0.0,2.856731414794922,-1.0388591766357422,0.1917510479688644,13.0,0.0,3.0509233474731445,-0.9319284439086915,0.1917510479688644,14.25,0.0,3.1539201736450195,-0.9093978881835938,0.1917510479688644,12.5,0.0,2.167940139770508,-1.425812530517578,0.0,19.5,0.0,2.202987670898437,-1.4655092239379885,0.0,19.25,0.0,2.431869506835937,-1.3900497436523438,0.0,12.5,0.0,2.862811088562012,-1.1264780044555665,0.0,12.0,0.0,3.0612945556640625,-0.9573200225830079,0.0,13.0
0.0,0.0002664723433554,2.8213584423065186,-1.2431861639022828,0.0,0.0,0.0,0.0,0.0,0.0,0.0,2.18045711517334,-1.4118650436401368,0.0,20.0,0.0,2.216935157775879,-1.4519193649291993,0.0,20.0,0.0,2.4100542068481445,-1.409719276428223,0.0,14.0,0.0,2.805948257446289,-1.2069442749023438,0.0,12.75,0.0,3.060579299926758,-0.9483793258666993,0.0,12.5,,,,,,,,,,,,,,,,,,,,,,,,,,,,,,
0.0,0.0002664723433554,2.8213584423065186,-1.2431861639022828,0.0,0.0,0.0,0.0,0.0,0.0,0.0,2.161860466003418,-1.457999038696289,0.0,18.25,0.0,2.209782600402832,-1.4898279190063477,0.0,18.75,0.0,2.456188201904297,-1.3675191879272461,0.0,13.25,0.0,2.866387367248535,-1.135418701171875,0.0,12.75,0.0,3.0698776245117188,-0.9598234176635743,0.0,14.75,0.0,3.1603574752807617,-1.0066726684570313,0.0,12.75,,,,,,,,,,,,,,,,,,,,,,,,,
0.0,0.0002664723433554,2.8213584423065186,-1.2431861639022828,0.0,0.0,0.0,0.0,0.0,0.0,0.0,2.167224884033203,-1.4551380157470704,0.0,16.5,0.0,2.2666454315185547,-1.478741455078125,0.0,17.5,0.0,2.7905702590942383,-1.2194612503051758,0.0,14.75,0.0,3.0258893966674805,-1.0256269454956055,0.0,14.5,0.0,3.15713882446289,-0.9902217864990235,0.0,12.25,,,,,,,,,,,,,,,,,,,,,,,,,,,,,,
0.0,0.0002539821434766,2.8212380409240723,-1.2361215829849244,-3.2259282306768e-05,0.0220626834779977,0.0003140643239021,-2.208918522228487e-05,0.0482047609984874,-0.0116297248750925,0.0,2.4869441986083984,-1.1118152618408204,0.7670041918754578,16.5,0.0,2.6013851165771484,-1.0506608963012696,0.1917510479688644,16.0,0.0,2.768397331237793,-1.0252693176269532,0.1917510479688644,13.0,0.0,2.1840333938598637,-1.4401176452636721,0.0,16.0,0.0,2.2995471954345703,-1.434037971496582,0.0,17.75,0.0,2.812027931213379,-1.1507966995239258,0.0,15.75,0.0,3.0248165130615234,-1.0098913192749024,0.0,15.25,0.0,3.1603574752807617,-0.9580352783203125,0.0,12.5,,,,,,,,,,,,,,,
0.0,0.0002372821618337,2.8230254650115967,-1.2244301319122315,-6.588842370547354e-05,0.0438657030463218,0.0124340374022722,-4.422228448675014e-05,0.0915504395961761,-0.010195093229413,0.0,2.479076385498047,-1.2312629699707032,0.5752531439065933,15.5,0.0,2.641439437866211,-1.1282661437988282,0.1917510479688644,17.5,0.0,2.8177499771118164,-0.9641149520874024,0.1917510479688644,17.5,0.0,2.937197685241699,-0.9072521209716797,0.1917510479688644,14.0,0.0,2.3374557495117188,-1.3889768600463868,0.0,18.0,0.0,2.9844045639038086,-1.0263422012329102,0.0,16.25,,,,,,,,,,,,,,,,,,,,,,,,,
0.0,0.0002166658086935,2.8165829181671143,-1.2230311512947083,-8.929015893954784e-05,0.0288590975105762,0.0144268348813056,-5.4120180720929056e-05,0.0524394810199737,-0.0015444811433553,0.0,2.531290054321289,-1.1990764617919922,-0.1917510479688644,13.75,0.0,2.5774240493774414,-1.2233951568603516,-0.1917510479688644,16.5,0.0,2.70688533782959,-1.168678092956543,-0.1917510479688644,13.0,0.0,2.371072769165039,-1.3592937469482422,0.0,18.5,,,,,,,,,,,,,,,,,,,,,,,,,,,,,,,,,,,
0.0,0.0002074661897495,2.8197309970855717,-1.2215962290763855,0.0,0.0,0.0,0.0,0.0,0.0,0.0,2.209067344665528,-1.4161565780639649,0.0,16.5,0.0,2.342104911804199,-1.363942909240723,0.0,18.25,,,,,,,,,,,,,,,,,,,,,,,,,,,,,,,,,,,,,,,,,,,,,
0.0,0.0002020750835072,2.8220632076263428,-1.217971968650818,-8.210588021029253e-06,0.0085815656930208,0.0057561611756682,-5.2808941291004885e-06,0.0145240584388375,0.0030924077145755,0.0,2.80916690826416,-1.1143186569213868,0.1917510479688644,12.0,0.0,2.240896224975586,-1.3939836502075196,0.0,13.25,0.0,2.420783042907715,-1.2856224060058594,0.0,16.75,,,,,,,,,,,,,,,,,,,,,,,,,,,,,,,,,,,,,,,,
0.0,0.0001868238614406,2.8453140258789062,-1.1784011602401734,-1.0431826922285836e-05,0.0263594947755336,0.1005851998925209,-4.326948328525759e-06,0.0075009735301136,0.0999102443456649,0.0,3.6710500717163086,-0.7785060882568359,-0.3835020959377289,13.5,0.0,3.714323043823242,-0.8110502243041993,-0.3835020959377289,12.0,0.0,2.337813377380371,-1.2902715682983399,0.0,14.0,0.0,2.447962760925293,-1.248786735534668,0.0,19.75,,,,,,,,,,,,,,,,,,,,,,,,,,,,,,,,,,,
0.0,0.0001801664329832,2.8578898906707764,-1.1587194681167603,-1.1922099474759308e-05,0.0411514081060886,0.145741656422615,-4.577182153298054e-06,0.0158217474818229,0.1438916772603988,0.0,3.674983978271485,-0.6812313079833984,-0.1917510479688644,13.0,0.0,2.3328065872192383,-1.3256767272949221,0.0,13.0,0.0,2.464771270751953,-1.2405612945556639,0.0,19.5,,,,,,,,,,,,,,,,,,,,,,,,,,,,,,,,,,,,,,,,
0.0,0.0001801664329832,2.8578898906707764,-1.1587194681167603,-1.1922099474759308e-05,0.0411514081060886,0.145741656422615,-4.577182153298054e-06,0.0158217474818229,0.1438916772603988,0.0,2.47049331665039,-1.199791717529297,0.0,19.5,,,,,,,,,,,,,,,,,,,,,,,,,,,,,,,,,,,,,,,,,,,,,,,,,,
0.0,0.0001760345621732,2.852635622024536,-1.1607417345046998,-1.843801328504924e-05,0.0306841433048248,0.1415163427591323,-8.020835593924858e-06,0.0007346980273723,0.1414947211742401,0.0,2.565622329711914,-1.1543729782104493,-0.1917510479688644,12.5,0.0,2.327084541320801,-1.3439157485961915,0.0,12.75,0.0,2.457261085510254,-1.2416341781616211,0.0,18.75,,,,,,,,,,,,,,,,,,,,,,,,,,,,,,,,,,,,,,,,
0.0,0.0001760345621732,2.852635622024536,-1.1607417345046998,-1.843801328504924e-05,0.0306841433048248,0.1415163427591323,-8.020835593924858e-06,0.0007346980273723,0.1414947211742401,0.0,2.303481101989746,-1.3678768157958985,0.0,13.0,0.0,2.4368762969970703,-1.2795427322387696,0.0,18.0,0.0,2.8066635131835938,-1.0381439208984375,0.0,16.25,0.0,3.0090808868408203,-0.9766319274902344,0.0,15.75,,,,,,,,,,,,,,,,,,,,,,,,,,,,,,,,,,,
0.0,0.0001760345621732,2.852635622024536,-1.1607417345046998,-1.843801328504924e-05,0.0306841433048248,0.1415163427591323,-8.020835593924858e-06,0.0007346980273723,0.1414947211742401,0.0,2.304553985595703,-1.3979175567626951,0.0,15.25,0.0,2.419352531433105,-1.307080078125,0.0,21.0,0.0,2.5266408920288086,-1.2148120880126951,0.0,20.0,0.0,2.717256546020508,-1.1257627487182618,0.0,15.25,0.0,2.981901168823242,-1.0363557815551758,0.0,13.0,0.0,3.6363601684570312,-0.802467155456543,0.0,12.5,,,,,,,,,,,,,,,,,,,,,,,,,
0.0,0.0001760345621732,2.852635622024536,-1.1607417345046998,-1.843801328504924e-05,0.0306841433048248,0.1415163427591323,-8.020835593924858e-06,0.0007346980273723,0.1414947211742401,0.0,2.315282821655273,-1.3818243026733399,0.0,15.25,0.0,2.4279356002807617,-1.3024309158325196,0.0,21.25,0.0,2.5316476821899414,-1.2026527404785157,0.0,20.75,0.0,3.640294075012207,-0.7853010177612304,0.0,12.75,,,,,,,,,,,,,,,,,,,,,,,,,,,,,,,,,,,
0.0,0.0001725160254864,2.8427350521087646,-1.1749878406524659,-2.496226989023853e-05,0.0120182316750288,0.1113149374723434,-1.144930320151616e-05,-0.0217975378036499,0.1148700267076492,0.0,2.33316421508789,-1.4104345321655272,-0.1917510479688644,13.5,0.0,2.3435354232788086,-1.339266586303711,0.0,17.25,0.0,2.4275779724121094,-1.283119010925293,0.0,23.5,0.0,2.5026798248291016,-1.2205341339111329,0.0,22.25,0.0,3.647446632385254,-0.7695653915405273,0.0,12.25,,,,,,,,,,,,,,,,,,,,,,,,,,,,,,
0.0,0.0001725160254864,2.8427350521087646,-1.1749878406524659,-2.496226989023853e-05,0.0120182316750288,0.1113149374723434,-1.144930320151616e-05,-0.0217975378036499,0.1148700267076492,0.0,2.4265050888061523,-1.2981393814086915,0.0,23.0,0.0,2.4955272674560547,-1.2305477142333985,0.0,22.25,0.0,3.6596059799194336,-0.7309415817260743,0.0,12.25,,,,,,,,,,,,,,,,,,,,,,,,,,,,,,,,,,,,,,,,
0.0,0.0001725160254864,2.8427350521087646,-1.1749878406524659,-2.496226989023853e-05,0.0120182316750288,0.1113149374723434,-1.144930320151616e-05,-0.0217975378036499,0.1148700267076492,0.0,2.294540405273437,-1.4025667190551758,0.0,16.5,0.0,2.3910999298095703,-1.3474920272827149,0.0,21.25,0.0,2.506256103515625,-1.2416341781616211,0.0,20.25,,,,,,,,,,,,,,,,,,,,,,,,,,,,,,,,,,,,,,,,
0.0,0.0001609118771739,2.8515985012054443,-1.163545298576355,-4.1914754547178745e-05,0.0381248965859413,0.1318049430847168,-2.263832357130013e-05,0.019658476114273,0.1284978836774826,0.0,2.4744272232055664,-1.2158849716186524,0.1917510479688644,12.25,0.0,2.5495290756225586,-1.203010368347168,0.1917510479688644,13.0,0.0,3.681063652038574,-0.5818107604980469,0.1917510479688644,13.0,0.0,3.6438703536987305,-0.679800796508789,0.0,14.75,,,,,,,,,,,,,,,,,,,,,,,,,,,,,,,,,,,
0.0,0.0001609118771739,2.8515985012054443,-1.163545298576355,-4.1914754547178745e-05,0.0381248965859413,0.1318049430847168,-2.263832357130013e-05,0.019658476114273,0.1284978836774826,0.0,3.6388635635375977,-0.7291534423828125,0.0,15.5,0.0,3.683924674987793,-0.7169940948486329,0.0,12.5,,,,,,,,,,,,,,,,,,,,,,,,,,,,,,,,,,,,,,,,,,,,,
0.0,0.0001609118771739,2.8515985012054443,-1.163545298576355,-4.1914754547178745e-05,0.0381248965859413,0.1318049430847168,-2.263832357130013e-05,0.019658476114273,0.1284978836774826,0.0,2.2891759872436523,-1.4200904846191407,0.0,17.25,0.0,2.395033836364746,-1.3446310043334961,0.0,22.5,0.0,2.489447593688965,-1.2863376617431639,0.0,21.75,0.0,2.7011632919311523,-1.143644142150879,0.0,16.5,,,,,,,,,,,,,,,,,,,,,,,,,,,,,,,,,,,
0.0,0.0001609118771739,2.8515985012054443,-1.163545298576355,-4.1914754547178745e-05,0.0381248965859413,0.1318049430847168,-2.263832357130013e-05,0.019658476114273,0.1284978836774826,0.0,3.6295652389526367,-0.7552602767944336,0.0,15.75,0.0,3.684282302856445,-0.656912612915039,0.0,12.25,,,,,,,,,,,,,,,,,,,,,,,,,,,,,,,,,,,,,,,,,,,,,
0.0,0.0001609118771739,2.8515985012054443,-1.163545298576355,-4.1914754547178745e-05,0.0381248965859413,0.1318049430847168,-2.263832357130013e-05,0.019658476114273,0.1284978836774826,0.0,2.306342124938965,-1.3950565338134766,0.0,16.5,,,,,,,,,,,,,,,,,,,,,,,,,,,,,,,,,,,,,,,,,,,,,,,,,,
0.0,0.0001515900949016,2.8767552375793457,-1.1312101364135743,-4.530121441348456e-05,0.0802939981222152,0.2024467289447784,-2.491487430233974e-05,0.0665807723999023,0.1922421902418136,0.0,3.690361976623535,-0.6415346145629883,0.1917510479688644,15.25,0.0,3.725767135620117,-0.632951545715332,0.1917510479688644,13.5,0.0,2.2602081298828125,-1.4669397354125977,0.0,15.0,0.0,2.404332160949707,-1.3603666305541993,0.0,20.25,0.0,2.5370121002197266,-1.2895563125610352,0.0,20.5,0.0,2.755165100097656,-1.1908510208129883,0.0,18.5,0.0,2.947926521301269,-1.111457633972168,0.0,17.0,,,,,,,,,,,,,,,,,,,,
0.0,0.0001429336698492,2.9010655879974365,-1.10046147108078,-4.731047374662012e-05,0.1194019764661789,0.270567774772644,-2.620541454234626e-05,0.108423002064228,0.2545280456542969,0.0,3.7229061126708975,-0.6118515014648437,0.1917510479688644,12.25,0.0,3.774404525756836,-0.5946853637695312,0.1917510479688644,12.5,0.0,2.275228500366211,-1.456926155090332,0.0,15.0,0.0,2.427220344543457,-1.3228157043457032,0.0,21.0,0.0,2.5348663330078125,-1.2752511978149415,0.0,21.25,0.0,2.741217613220215,-1.181195068359375,0.0,18.75,0.0,2.951502799987793,-1.1465051651000977,0.0,16.5,,,,,,,,,,,,,,,,,,,,
0.0,0.0001429336698492,2.9010655879974365,-1.10046147108078,-4.731047374662012e-05,0.1194019764661789,0.270567774772644,-2.620541454234626e-05,0.108423002064228,0.2545280456542969,0.0,2.28273868560791,-1.4476278305053711,0.0,15.5,0.0,2.3660659790039062,-1.4315345764160157,0.0,21.5,0.0,2.512693405151367,-1.3328292846679688,0.0,21.0,0.0,2.789139747619629,-1.1547306060791016,0.0,19.0,0.0,2.9758214950561523,-1.1232593536376954,0.0,19.25,0.0,3.128170967102051,-1.1246898651123047,0.0,12.75,,,,,,,,,,,,,,,,,,,,,,,,,
0.0,0.0001429336698492,2.9010655879974365,-1.10046147108078,-4.731047374662012e-05,0.1194019764661789,0.270567774772644,-2.620541454234626e-05,0.108423002064228,0.2545280456542969,0.0,2.335667610168457,-1.360009002685547,0.0,16.0,0.0,2.405405044555664,-1.3482072830200196,0.0,22.5,0.0,2.5016069412231445,-1.3131597518920899,0.0,21.75,0.0,2.7608871459960938,-1.1826255798339844,0.0,18.5,0.0,2.977609634399414,-1.1271932601928711,0.0,18.5,0.0,3.1228065490722656,-1.1314847946166993,0.0,13.25,,,,,,,,,,,,,,,,,,,,,,,,,
0.0,0.0001429336698492,2.9010655879974365,-1.10046147108078,-4.731047374662012e-05,0.1194019764661789,0.270567774772644,-2.620541454234626e-05,0.108423002064228,0.2545280456542969,0.0,2.547740936279297,-1.2140968322753907,0.0,20.25,0.0,2.7701854705810547,-1.182267951965332,0.0,18.25,0.0,2.966165542602539,-1.1679628372192383,0.0,18.0,0.0,3.140687942504883,-1.077125358581543,0.0,13.25,,,,,,,,,,,,,,,,,,,,,,,,,,,,,,,,,,,
0.0,0.0001429336698492,2.9010655879974365,-1.10046147108078,-4.731047374662012e-05,0.1194019764661789,0.270567774772644,-2.620541454234626e-05,0.108423002064228,0.2545280456542969,0.0,2.430438995361328,-1.2645223617553711,0.0,23.5,0.0,2.5191307067871094,-1.2409189224243165,0.0,22.0,0.0,2.754807472229004,-1.1951425552368165,0.0,18.5,0.0,2.956509590148926,-1.176903533935547,0.0,18.5,,,,,,,,,,,,,,,,,,,,,,,,,,,,,,,,,,,
0.0,0.0001429336698492,2.9010655879974365,-1.10046147108078,-4.731047374662012e-05,0.1194019764661789,0.270567774772644,-2.620541454234626e-05,0.108423002064228,0.2545280456542969,0.0,2.3546218872070312,-1.319597053527832,0.0,16.75,0.0,2.435445785522461,-1.269529151916504,0.0,23.25,0.0,2.535223960876465,-1.219818878173828,0.0,21.5,0.0,2.7458667755126958,-1.1872747421264649,0.0,18.25,0.0,2.953648567199707,-1.1525848388671875,0.0,17.5,,,,,,,,,,,,,,,,,,,,,,,,,,,,,,
0.0,0.0001429336698492,2.9010655879974365,-1.10046147108078,-4.731047374662012e-05,0.1194019764661789,0.270567774772644,-2.620541454234626e-05,0.108423002064228,0.2545280456542969,0.0,2.352833747863769,-1.326749610900879,0.0,16.5,0.0,2.434372901916504,-1.2745359420776368,0.0,23.0,0.0,2.5287866592407227,-1.2355545043945313,0.0,21.5,0.0,2.7408599853515625,-1.1990764617919922,0.0,18.25,0.0,2.9636621475219727,-1.1536577224731446,0.0,17.5,0.0,3.5794973373413086,-0.8911588668823243,0.0,12.25,,,,,,,,,,,,,,,,,,,,,,,,,
0.0,0.0001429336698492,2.9010655879974365,-1.10046147108078,-4.731047374662012e-05,0.1194019764661789,0.270567774772644,-2.620541454234626e-05,0.108423002064228,0.2545280456542969,0.0,2.342104911804199,-1.3474920272827149,0.0,16.5,0.0,2.423286437988281,-1.2856224060058594,0.0,23.0,0.0,2.496600151062012,-1.2516477584838868,0.0,21.5,0.0,2.771615982055664,-1.1171796798706055,0.0,16.0,0.0,2.9926300048828125,-1.1168220520019532,0.0,17.25,0.0,3.5583972930908203,-0.961611557006836,0.0,12.75,,,,,,,,,,,,,,,,,,,,,,,,,
0.0,0.0001429336698492,2.9010655879974365,-1.10046147108078,-4.731047374662012e-05,0.1194019764661789,0.270567774772644,-2.620541454234626e-05,0.108423002064228,0.2545280456542969,0.0,2.336740493774414,-1.3564327239990235,0.0,17.0,0.0,2.417922019958496,-1.2891986846923829,0.0,23.25,0.0,2.496600151062012,-1.2419918060302735,0.0,21.5,0.0,2.760171890258789,-1.1236169815063477,0.0,16.0,0.0,2.982974052429199,-1.109311866760254,0.0,17.0,,,,,,,,,,,,,,,,,,,,,,,,,,,,,,
0.0,0.0001429336698492,2.9010655879974365,-1.10046147108078,-4.731047374662012e-05,0.1194019764661789,0.270567774772644,-2.620541454234626e-05,0.108423002064228,0.2545280456542969,0.0,2.328157424926758,-1.365373420715332,0.0,16.25,0.0,2.419710159301758,-1.2906291961669922,0.0,22.25,0.0,2.4858713150024414,-1.2573698043823243,0.0,20.75,0.0,2.71761417388916,-1.1912086486816407,0.0,14.5,0.0,2.9801130294799805,-1.171896743774414,0.0,14.75,,,,,,,,,,,,,,,,,,,,,,,,,,,,,,
0.0,0.0001429336698492,2.9010655879974365,-1.10046147108078,-4.731047374662012e-05,0.1194019764661789,0.270567774772644,-2.620541454234626e-05,0.108423002064228,0.2545280456542969,0.0,2.3088455200195312,-1.3896921157836915,0.0,14.75,0.0,2.4243593215942383,-1.298854637145996,0.0,20.75,0.0,2.505183219909668,-1.250932502746582,0.0,20.0,0.0,2.731204032897949,-1.1887052536010743,0.0,14.5,0.0,2.9779672622680664,-1.134345817565918,0.0,15.0,,,,,,,,,,,,,,,,,,,,,,,,,,,,,,
0.0,0.0001429336698492,2.9010655879974365,-1.10046147108078,-4.731047374662012e-05,0.1194019764661789,0.270567774772644,-2.620541454234626e-05,0.108423002064228,0.2545280456542969,0.0,2.302408218383789,-1.4072158813476563,0.0,16.25,0.0,2.392172813415528,-1.3596513748168944,0.0,22.0,0.0,2.709388732910156,-1.1901357650756836,0.0,14.5,0.0,2.985835075378418,-1.0899999618530274,0.0,14.25,,,,,,,,,,,,,,,,,,,,,,,,,,,,,,,,,,,
0.0,0.0001429336698492,2.9010655879974365,-1.10046147108078,-4.731047374662012e-05,0.1194019764661789,0.270567774772644,-2.620541454234626e-05,0.108423002064228,0.2545280456542969,0.0,2.263784408569336,-1.452634620666504,0.0,12.5,,,,,,,,,,,,,,,,,,,,,,,,,,,,,,,,,,,,,,,,,,,,,,,,,,
0.0,0.0001429336698492,2.9010655879974365,-1.10046147108078,-4.731047374662012e-05,0.1194019764661789,0.270567774772644,-2.620541454234626e-05,0.108423002064228,0.2545280456542969,,,,,,,,,,,,,,,,,,,,,,,,,,,,,,,,,,,,,,,,,,,,,,,,,,,,,,,
0.0,0.0001429336698492,2.9010655879974365,-1.10046147108078,-4.731047374662012e-05,0.1194019764661789,0.270567774772644,-2.620541454234626e-05,0.108423002064228,0.2545280456542969,,,,,,,,,,,,,,,,,,,,,,,,,,,,,,,,,,,,,,,,,,,,,,,,,,,,,,,
0.0,0.0001429336698492,2.9010655879974365,-1.10046147108078,-4.731047374662012e-05,0.1194019764661789,0.270567774772644,-2.620541454234626e-05,0.108423002064228,0.2545280456542969,0.0,2.31313705444336,-1.4544227600097657,0.0,16.0,0.0,2.577066421508789,-1.0764101028442383,0.0,14.0,0.0,3.017663955688477,-1.0649660110473633,0.0,12.25,,,,,,,,,,,,,,,,,,,,,,,,,,,,,,,,,,,,,,,,
0.0,0.0001429336698492,2.9010655879974365,-1.10046147108078,-4.731047374662012e-05,0.1194019764661789,0.270567774772644,-2.620541454234626e-05,0.108423002064228,0.2545280456542969,0.0,2.39253044128418,-1.3439157485961915,0.0,15.25,0.0,2.5495290756225586,-1.1497238159179688,0.0,14.25,,,,,,,,,,,,,,,,,,,,,,,,,,,,,,,,,,,,,,,,,,,,,
0.0,0.0001429336698492,2.9010655879974365,-1.10046147108078,-4.731047374662012e-05,0.1194019764661789,0.270567774772644,-2.620541454234626e-05,0.108423002064228,0.2545280456542969,0.0,2.361774444580078,-1.389334487915039,0.0,16.5,0.0,2.5649070739746094,-1.1175373077392579,0.0,14.75,,,,,,,,,,,,,,,,,,,,,,,,,,,,,,,,,,,,,,,,,,,,,
0.0,0.0001429336698492,2.9010655879974365,-1.10046147108078,-4.731047374662012e-05,0.1194019764661789,0.270567774772644,-2.620541454234626e-05,0.108423002064228,0.2545280456542969,0.0,2.4297237396240234,-1.3102987289428711,0.0,17.0,0.0,2.549886703491211,-1.1747577667236329,0.0,16.75,0.0,2.7877092361450195,-0.9662607192993165,0.0,12.0,,,,,,,,,,,,,,,,,,,,,,,,,,,,,,,,,,,,,,,,
0.0,0.0001429336698492,2.9010655879974365,-1.10046147108078,-4.731047374662012e-05,0.1194019764661789,0.270567774772644,-2.620541454234626e-05,0.108423002064228,0.2545280456542969,0.0,2.420783042907715,-1.3592937469482422,0.0,15.25,0.0,2.5473833084106445,-1.1897781372070313,0.0,15.5,,,,,,,,,,,,,,,,,,,,,,,,,,,,,,,,,,,,,,,,,,,,,
0.0,0.0001429336698492,2.9010655879974365,-1.10046147108078,-4.731047374662012e-05,0.1194019764661789,0.270567774772644,-2.620541454234626e-05,0.108423002064228,0.2545280456542969,0.0,2.453327178955078,-1.294563102722168,0.0,14.0,0.0,2.594590187072754,-1.1089542388916016,0.0,15.0,,,,,,,,,,,,,,,,,,,,,,,,,,,,,,,,,,,,,,,,,,,,,
0.0,0.0001429336698492,2.9010655879974365,-1.10046147108078,-4.731047374662012e-05,0.1194019764661789,0.270567774772644,-2.620541454234626e-05,0.108423002064228,0.2545280456542969,0.0,2.386808395385742,-1.4243820190429688,0.0,14.0,0.0,2.567768096923828,-1.2326934814453123,0.0,14.25,0.0,2.7941465377807617,-1.065681266784668,0.0,12.25,,,,,,,,,,,,,,,,,,,,,,,,,,,,,,,,,,,,,,,,
0.0,0.0001429336698492,2.9010655879974365,-1.10046147108078,-4.731047374662012e-05,0.1194019764661789,0.270567774772644,-2.620541454234626e-05,0.108423002064228,0.2545280456542969,0.0,2.639293670654297,-1.0445812225341797,0.0,12.5,,,,,,,,,,,,,,,,,,,,,,,,,,,,,,,,,,,,,,,,,,,,,,,,,,
0.0,0.0001429336698492,2.9010655879974365,-1.10046147108078,-4.731047374662012e-05,0.1194019764661789,0.270567774772644,-2.620541454234626e-05,0.108423002064228,0.2545280456542969,,,,,,,,,,,,,,,,,,,,,,,,,,,,,,,,,,,,,,,,,,,,,,,,,,,,,,,
0.0,0.0001429336698492,2.9010655879974365,-1.10046147108078,-4.731047374662012e-05,0.1194019764661789,0.270567774772644,-2.620541454234626e-05,0.108423002064228,0.2545280456542969,0.0,2.67934799194336,-0.9680488586425782,0.0,12.5,,,,,,,,,,,,,,,,,,,,,,,,,,,,,,,,,,,,,,,,,,,,,,,,,,
0.0,0.0001429336698492,2.9010655879974365,-1.10046147108078,-4.731047374662012e-05,0.1194019764661789,0.270567774772644,-2.620541454234626e-05,0.108423002064228,0.2545280456542969,0.0,2.6786327362060547,-0.9930828094482422,0.0,12.75,,,,,,,,,,,,,,,,,,,,,,,,,,,,,,,,,,,,,,,,,,,,,,,,,,
0.0,0.0001429336698492,2.9010655879974365,-1.10046147108078,-4.731047374662012e-05,0.1194019764661789,0.270567774772644,-2.620541454234626e-05,0.108423002064228,0.2545280456542969,,,,,,,,,,,,,,,,,,,,,,,,,,,,,,,,,,,,,,,,,,,,,,,,,,,,,,,
0.0,0.0001429336698492,2.9010655879974365,-1.10046147108078,-4.731047374662012e-05,0.1194019764661789,0.270567774772644,-2.620541454234626e-05,0.108423002064228,0.2545280456542969,0.0,3.0040740966796875,-1.0102489471435547,0.0,12.75,,,,,,,,,,,,,,,,,,,,,,,,,,,,,,,,,,,,,,,,,,,,,,,,,,
0.0,0.0001429336698492,2.9010655879974365,-1.10046147108078,-4.731047374662012e-05,0.1194019764661789,0.270567774772644,-2.620541454234626e-05,0.108423002064228,0.2545280456542969,0.0,2.9175281524658203,-0.9798505783081055,0.0,12.5,,,,,,,,,,,,,,,,,,,,,,,,,,,,,,,,,,,,,,,,,,,,,,,,,,
0.0,0.0001429336698492,2.9010655879974365,-1.10046147108078,-4.731047374662012e-05,0.1194019764661789,0.270567774772644,-2.620541454234626e-05,0.108423002064228,0.2545280456542969,,,,,,,,,,,,,,,,,,,,,,,,,,,,,,,,,,,,,,,,,,,,,,,,,,,,,,,
0.0,0.0001429336698492,2.9010655879974365,-1.10046147108078,-4.731047374662012e-05,0.1194019764661789,0.270567774772644,-2.620541454234626e-05,0.108423002064228,0.2545280456542969,,,,,,,,,,,,,,,,,,,,,,,,,,,,,,,,,,,,,,,,,,,,,,,,,,,,,,,
0.0,0.0001429336698492,2.9010655879974365,-1.10046147108078,-4.731047374662012e-05,0.1194019764661789,0.270567774772644,-2.620541454234626e-05,0.108423002064228,0.2545280456542969,,,,,,,,,,,,,,,,,,,,,,,,,,,,,,,,,,,,,,,,,,,,,,,,,,,,,,,
0.0,0.0001429336698492,2.9010655879974365,-1.10046147108078,-4.731047374662012e-05,0.1194019764661789,0.270567774772644,-2.620541454234626e-05,0.108423002064228,0.2545280456542969,,,,,,,,,,,,,,,,,,,,,,,,,,,,,,,,,,,,,,,,,,,,,,,,,,,,,,,
0.0,0.0001429336698492,2.9010655879974365,-1.10046147108078,-4.731047374662012e-05,0.1194019764661789,0.270567774772644,-2.620541454234626e-05,0.108423002064228,0.2545280456542969,,,,,,,,,,,,,,,,,,,,,,,,,,,,,,,,,,,,,,,,,,,,,,,,,,,,,,,
0.0,0.0001429336698492,2.9010655879974365,-1.10046147108078,-4.731047374662012e-05,0.1194019764661789,0.270567774772644,-2.620541454234626e-05,0.108423002064228,0.2545280456542969,,,,,,,,,,,,,,,,,,,,,,,,,,,,,,,,,,,,,,,,,,,,,,,,,,,,,,,
0.0,0.0001429336698492,2.9010655879974365,-1.10046147108078,-4.731047374662012e-05,0.1194019764661789,0.270567774772644,-2.620541454234626e-05,0.108423002064228,0.2545280456542969,,,,,,,,,,,,,,,,,,,,,,,,,,,,,,,,,,,,,,,,,,,,,,,,,,,,,,,
0.0,0.0001429336698492,2.9010655879974365,-1.10046147108078,-4.731047374662012e-05,0.1194019764661789,0.270567774772644,-2.620541454234626e-05,0.108423002064228,0.2545280456542969,,,,,,,,,,,,,,,,,,,,,,,,,,,,,,,,,,,,,,,,,,,,,,,,,,,,,,,
0.0,0.0001429336698492,2.9010655879974365,-1.10046147108078,-4.731047374662012e-05,0.1194019764661789,0.270567774772644,-2.620541454234626e-05,0.108423002064228,0.2545280456542969,,,,,,,,,,,,,,,,,,,,,,,,,,,,,,,,,,,,,,,,,,,,,,,,,,,,,,,
0.0,0.0001429336698492,2.9010655879974365,-1.10046147108078,-4.731047374662012e-05,0.1194019764661789,0.270567774772644,-2.620541454234626e-05,0.108423002064228,0.2545280456542969,,,,,,,,,,,,,,,,,,,,,,,,,,,,,,,,,,,,,,,,,,,,,,,,,,,,,,,
0.0,0.0001429336698492,2.9010655879974365,-1.10046147108078,-4.731047374662012e-05,0.1194019764661789,0.270567774772644,-2.620541454234626e-05,0.108423002064228,0.2545280456542969,,,,,,,,,,,,,,,,,,,,,,,,,,,,,,,,,,,,,,,,,,,,,,,,,,,,,,,
0.0,0.0001429336698492,2.9010655879974365,-1.10046147108078,-4.731047374662012e-05,0.1194019764661789,0.270567774772644,-2.620541454234626e-05,0.108423002064228,0.2545280456542969,,,,,,,,,,,,,,,,,,,,,,,,,,,,,,,,,,,,,,,,,,,,,,,,,,,,,,,
0.0,0.0001429336698492,2.9010655879974365,-1.10046147108078,-4.731047374662012e-05,0.1194019764661789,0.270567774772644,-2.620541454234626e-05,0.108423002064228,0.2545280456542969,,,,,,,,,,,,,,,,,,,,,,,,,,,,,,,,,,,,,,,,,,,,,,,,,,,,,,,
0.0,0.0001429336698492,2.9010655879974365,-1.10046147108078,-4.731047374662012e-05,0.1194019764661789,0.270567774772644,-2.620541454234626e-05,0.108423002064228,0.2545280456542969,,,,,,,,,,,,,,,,,,,,,,,,,,,,,,,,,,,,,,,,,,,,,,,,,,,,,,,
0.0,0.0001429336698492,2.9010655879974365,-1.10046147108078,-4.731047374662012e-05,0.1194019764661789,0.270567774772644,-2.620541454234626e-05,0.108423002064228,0.2545280456542969,,,,,,,,,,,,,,,,,,,,,,,,,,,,,,,,,,,,,,,,,,,,,,,,,,,,,,,
0.0,0.0001429336698492,2.9010655879974365,-1.10046147108078,-4.731047374662012e-05,0.1194019764661789,0.270567774772644,-2.620541454234626e-05,0.108423002064228,0.2545280456542969,,,,,,,,,,,,,,,,,,,,,,,,,,,,,,,,,,,,,,,,,,,,,,,,,,,,,,,
0.0,0.0001429336698492,2.9010655879974365,-1.10046147108078,-4.731047374662012e-05,0.1194019764661789,0.270567774772644,-2.620541454234626e-05,0.108423002064228,0.2545280456542969,,,,,,,,,,,,,,,,,,,,,,,,,,,,,,,,,,,,,,,,,,,,,,,,,,,,,,,
0.0,0.0001429336698492,2.9010655879974365,-1.10046147108078,-4.731047374662012e-05,0.1194019764661789,0.270567774772644,-2.620541454234626e-05,0.108423002064228,0.2545280456542969,,,,,,,,,,,,,,,,,,,,,,,,,,,,,,,,,,,,,,,,,,,,,,,,,,,,,,,
0.0,0.0001429336698492,2.9010655879974365,-1.10046147108078,-4.731047374662012e-05,0.1194019764661789,0.270567774772644,-2.620541454234626e-05,0.108423002064228,0.2545280456542969,,,,,,,,,,,,,,,,,,,,,,,,,,,,,,,,,,,,,,,,,,,,,,,,,,,,,,,
0.0,0.0001429336698492,2.9010655879974365,-1.10046147108078,-4.731047374662012e-05,0.1194019764661789,0.270567774772644,-2.620541454234626e-05,0.108423002064228,0.2545280456542969,,,,,,,,,,,,,,,,,,,,,,,,,,,,,,,,,,,,,,,,,,,,,,,,,,,,,,,
0.0,0.0001429336698492,2.9010655879974365,-1.10046147108078,-4.731047374662012e-05,0.1194019764661789,0.270567774772644,-2.620541454234626e-05,0.108423002064228,0.2545280456542969,,,,,,,,,,,,,,,,,,,,,,,,,,,,,,,,,,,,,,,,,,,,,,,,,,,,,,,
0.0,0.0001429336698492,2.9010655879974365,-1.10046147108078,-4.731047374662012e-05,0.1194019764661789,0.270567774772644,-2.620541454234626e-05,0.108423002064228,0.2545280456542969,,,,,,,,,,,,,,,,,,,,,,,,,,,,,,,,,,,,,,,,,,,,,,,,,,,,,,,
0.0,0.0001429336698492,2.9010655879974365,-1.10046147108078,-4.731047374662012e-05,0.1194019764661789,0.270567774772644,-2.620541454234626e-05,0.108423002064228,0.2545280456542969,,,,,,,,,,,,,,,,,,,,,,,,,,,,,,,,,,,,,,,,,,,,,,,,,,,,,,,
0.0,0.0001429336698492,2.9010655879974365,-1.10046147108078,-4.731047374662012e-05,0.1194019764661789,0.270567774772644,-2.620541454234626e-05,0.108423002064228,0.2545280456542969,,,,,,,,,,,,,,,,,,,,,,,,,,,,,,,,,,,,,,,,,,,,,,,,,,,,,,,
0.0,0.0001429336698492,2.9010655879974365,-1.10046147108078,-4.731047374662012e-05,0.1194019764661789,0.270567774772644,-2.620541454234626e-05,0.108423002064228,0.2545280456542969,,,,,,,,,,,,,,,,,,,,,,,,,,,,,,,,,,,,,,,,,,,,,,,,,,,,,,,
0.0,0.0001429336698492,2.9010655879974365,-1.10046147108078,-4.731047374662012e-05,0.1194019764661789,0.270567774772644,-2.620541454234626e-05,0.108423002064228,0.2545280456542969,,,,,,,,,,,,,,,,,,,,,,,,,,,,,,,,,,,,,,,,,,,,,,,,,,,,,,,
0.0,0.0001429336698492,2.9010655879974365,-1.10046147108078,-4.731047374662012e-05,0.1194019764661789,0.270567774772644,-2.620541454234626e-05,0.108423002064228,0.2545280456542969,,,,,,,,,,,,,,,,,,,,,,,,,,,,,,,,,,,,,,,,,,,,,,,,,,,,,,,
0.0,0.0001429336698492,2.9010655879974365,-1.10046147108078,-4.731047374662012e-05,0.1194019764661789,0.270567774772644,-2.620541454234626e-05,0.108423002064228,0.2545280456542969,,,,,,,,,,,,,,,,,,,,,,,,,,,,,,,,,,,,,,,,,,,,,,,,,,,,,,,
0.0,0.0001429336698492,2.9010655879974365,-1.10046147108078,-4.731047374662012e-05,0.1194019764661789,0.270567774772644,-2.620541454234626e-05,0.108423002064228,0.2545280456542969,,,,,,,,,,,,,,,,,,,,,,,,,,,,,,,,,,,,,,,,,,,,,,,,,,,,,,,
0.0,0.0001429336698492,2.9010655879974365,-1.10046147108078,-4.731047374662012e-05,0.1194019764661789,0.270567774772644,-2.620541454234626e-05,0.108423002064228,0.2545280456542969,,,,,,,,,,,,,,,,,,,,,,,,,,,,,,,,,,,,,,,,,,,,,,,,,,,,,,,
0.0,0.0001429336698492,2.9010655879974365,-1.10046147108078,-4.731047374662012e-05,0.1194019764661789,0.270567774772644,-2.620541454234626e-05,0.108423002064228,0.2545280456542969,,,,,,,,,,,,,,,,,,,,,,,,,,,,,,,,,,,,,,,,,,,,,,,,,,,,,,,
0.0,0.0001429336698492,2.9010655879974365,-1.10046147108078,-4.731047374662012e-05,0.1194019764661789,0.270567774772644,-2.620541454234626e-05,0.108423002064228,0.2545280456542969,,,,,,,,,,,,,,,,,,,,,,,,,,,,,,,,,,,,,,,,,,,,,,,,,,,,,,,
0.0,0.0001429336698492,2.9010655879974365,-1.10046147108078,-4.731047374662012e-05,0.1194019764661789,0.270567774772644,-2.620541454234626e-05,0.108423002064228,0.2545280456542969,,,,,,,,,,,,,,,,,,,,,,,,,,,,,,,,,,,,,,,,,,,,,,,,,,,,,,,
0.0,0.0001429336698492,2.9010655879974365,-1.10046147108078,-4.731047374662012e-05,0.1194019764661789,0.270567774772644,-2.620541454234626e-05,0.108423002064228,0.2545280456542969,,,,,,,,,,,,,,,,,,,,,,,,,,,,,,,,,,,,,,,,,,,,,,,,,,,,,,,
0.0,0.0001429336698492,2.9010655879974365,-1.10046147108078,-4.731047374662012e-05,0.1194019764661789,0.270567774772644,-2.620541454234626e-05,0.108423002064228,0.2545280456542969,,,,,,,,,,,,,,,,,,,,,,,,,,,,,,,,,,,,,,,,,,,,,,,,,,,,,,,
0.0,0.0001429336698492,2.9010655879974365,-1.10046147108078,-4.731047374662012e-05,0.1194019764661789,0.270567774772644,-2.620541454234626e-05,0.108423002064228,0.2545280456542969,,,,,,,,,,,,,,,,,,,,,,,,,,,,,,,,,,,,,,,,,,,,,,,,,,,,,,,
0.0,0.0001429336698492,2.9010655879974365,-1.10046147108078,-4.731047374662012e-05,0.1194019764661789,0.270567774772644,-2.620541454234626e-05,0.108423002064228,0.2545280456542969,,,,,,,,,,,,,,,,,,,,,,,,,,,,,,,,,,,,,,,,,,,,,,,,,,,,,,,
0.0,0.0001429336698492,2.9010655879974365,-1.10046147108078,-4.731047374662012e-05,0.1194019764661789,0.270567774772644,-2.620541454234626e-05,0.108423002064228,0.2545280456542969,,,,,,,,,,,,,,,,,,,,,,,,,,,,,,,,,,,,,,,,,,,,,,,,,,,,,,,
0.0,0.0001429336698492,2.9010655879974365,-1.10046147108078,-4.731047374662012e-05,0.1194019764661789,0.270567774772644,-2.620541454234626e-05,0.108423002064228,0.2545280456542969,,,,,,,,,,,,,,,,,,,,,,,,,,,,,,,,,,,,,,,,,,,,,,,,,,,,,,,
0.0,0.0001429336698492,2.9010655879974365,-1.10046147108078,-4.731047374662012e-05,0.1194019764661789,0.270567774772644,-2.620541454234626e-05,0.108423002064228,0.2545280456542969,,,,,,,,,,,,,,,,,,,,,,,,,,,,,,,,,,,,,,,,,,,,,,,,,,,,,,,
0.0,0.0001429336698492,2.9010655879974365,-1.10046147108078,-4.731047374662012e-05,0.1194019764661789,0.270567774772644,-2.620541454234626e-05,0.108423002064228,0.2545280456542969,,,,,,,,,,,,,,,,,,,,,,,,,,,,,,,,,,,,,,,,,,,,,,,,,,,,,,,
0.0,0.0001429336698492,2.9010655879974365,-1.10046147108078,-4.731047374662012e-05,0.1194019764661789,0.270567774772644,-2.620541454234626e-05,0.108423002064228,0.2545280456542969,,,,,,,,,,,,,,,,,,,,,,,,,,,,,,,,,,,,,,,,,,,,,,,,,,,,,,,
0.0,0.0001429336698492,2.9010655879974365,-1.10046147108078,-4.731047374662012e-05,0.1194019764661789,0.270567774772644,-2.620541454234626e-05,0.108423002064228,0.2545280456542969,,,,,,,,,,,,,,,,,,,,,,,,,,,,,,,,,,,,,,,,,,,,,,,,,,,,,,,
0.0,0.0001429336698492,2.9010655879974365,-1.10046147108078,-4.731047374662012e-05,0.1194019764661789,0.270567774772644,-2.620541454234626e-05,0.108423002064228,0.2545280456542969,,,,,,,,,,,,,,,,,,,,,,,,,,,,,,,,,,,,,,,,,,,,,,,,,,,,,,,
0.0,0.0001429336698492,2.9010655879974365,-1.10046147108078,-4.731047374662012e-05,0.1194019764661789,0.270567774772644,-2.620541454234626e-05,0.108423002064228,0.2545280456542969,,,,,,,,,,,,,,,,,,,,,,,,,,,,,,,,,,,,,,,,,,,,,,,,,,,,,,,
0.0,0.0001429336698492,2.9010655879974365,-1.10046147108078,-4.731047374662012e-05,0.1194019764661789,0.270567774772644,-2.620541454234626e-05,0.108423002064228,0.2545280456542969,,,,,,,,,,,,,,,,,,,,,,,,,,,,,,,,,,,,,,,,,,,,,,,,,,,,,,,
0.0,0.0001429336698492,2.9010655879974365,-1.10046147108078,-4.731047374662012e-05,0.1194019764661789,0.270567774772644,-2.620541454234626e-05,0.108423002064228,0.2545280456542969,,,,,,,,,,,,,,,,,,,,,,,,,,,,,,,,,,,,,,,,,,,,,,,,,,,,,,,
0.0,0.0001429336698492,2.9010655879974365,-1.10046147108078,-4.731047374662012e-05,0.1194019764661789,0.270567774772644,-2.620541454234626e-05,0.108423002064228,0.2545280456542969,,,,,,,,,,,,,,,,,,,,,,,,,,,,,,,,,,,,,,,,,,,,,,,,,,,,,,,
0.0,0.0001429336698492,2.9010655879974365,-1.10046147108078,-4.731047374662012e-05,0.1194019764661789,0.270567774772644,-2.620541454234626e-05,0.108423002064228,0.2545280456542969,,,,,,,,,,,,,,,,,,,,,,,,,,,,,,,,,,,,,,,,,,,,,,,,,,,,,,,
0.0,0.0001429336698492,2.9010655879974365,-1.10046147108078,-4.731047374662012e-05,0.1194019764661789,0.270567774772644,-2.620541454234626e-05,0.108423002064228,0.2545280456542969,,,,,,,,,,,,,,,,,,,,,,,,,,,,,,,,,,,,,,,,,,,,,,,,,,,,,,,
0.0,-0.0005003621336072,2.3841798305511475,-1.3296400785446167,0.000163099146448,0.083709642291069,0.0858406648039817,9.867409244179726e-05,0.0851003378629684,0.0762881860136985,0.0,2.0449161529541016,-1.2033679962158204,0.0,12.5,0.0,2.46584415435791,-1.253078269958496,0.0,16.75,0.0,2.647519111633301,-1.296708869934082,0.0,20.0,0.0,2.6139020919799805,-1.2598731994628907,0.0,20.75,,,,,,,,,,,,,,,,,,,,,,,,,,,,,,,,,,,
0.0,-0.0005003621336072,2.3841798305511475,-1.3296400785446167,0.000163099146448,0.083709642291069,0.0858406648039817,9.867409244179726e-05,0.0851003378629684,0.0762881860136985,0.0,2.0374059677124023,-1.1726119995117188,0.0,12.5,0.0,2.4830102920532227,-1.2434223175048829,0.0,15.5,0.0,2.650737762451172,-1.2899139404296875,0.0,20.0,0.0,2.626776695251465,-1.2616613388061524,0.0,20.75,,,,,,,,,,,,,,,,,,,,,,,,,,,,,,,,,,,
0.0,-0.0005003621336072,2.3841798305511475,-1.3296400785446167,0.000163099146448,0.083709642291069,0.0858406648039817,9.867409244179726e-05,0.0851003378629684,0.0762881860136985,0.0,2.0313262939453125,-1.1847713470458985,0.0,12.0,0.0,2.4493932723999023,-1.2673833847045899,0.0,15.0,0.0,2.647876739501953,-1.2992122650146485,0.0,18.75,0.0,2.616405487060547,-1.259157943725586,0.0,19.25,,,,,,,,,,,,,,,,,,,,,,,,,,,,,,,,,,,
0.0,-0.0005003621336072,2.3841798305511475,-1.3296400785446167,0.000163099146448,0.083709642291069,0.0858406648039817,9.867409244179726e-05,0.0851003378629684,0.0762881860136985,0.0,2.441525459289551,-1.2630918502807615,0.0,12.25,0.0,2.619624137878418,-1.260230827331543,0.0,16.25,0.0,2.67183780670166,-1.2680986404418944,0.0,16.0,,,,,,,,,,,,,,,,,,,,,,,,,,,,,,,,,,,,,,,,
0.0,-0.0005003621336072,2.3841798305511475,-1.3296400785446167,0.000163099146448,0.083709642291069,0.0858406648039817,9.867409244179726e-05,0.0851003378629684,0.0762881860136985,0.0,2.619624137878418,-1.2444952011108399,0.0,17.5,0.0,2.6650428771972656,-1.275966453552246,0.0,16.75,,,,,,,,,,,,,,,,,,,,,,,,,,,,,,,,,,,,,,,,,,,,,
0.0,-0.0005003621336072,2.3841798305511475,-1.3296400785446167,0.000163099146448,0.083709642291069,0.0858406648039817,9.867409244179726e-05,0.0851003378629684,0.0762881860136985,0.0,2.385377883911133,-1.2881258010864258,0.0,12.25,0.0,2.593874931335449,-1.2495019912719727,0.0,14.0,0.0,2.6750564575195312,-1.2770393371582032,0.0,13.5,,,,,,,,,,,,,,,,,,,,,,,,,,,,,,,,,,,,,,,,
0.0,-0.0005003621336072,2.3841798305511475,-1.3296400785446167,0.000163099146448,0.083709642291069,0.0858406648039817,9.867409244179726e-05,0.0851003378629684,0.0762881860136985,,,,,,,,,,,,,,,,,,,,,,,,,,,,,,,,,,,,,,,,,,,,,,,,,,,,,,,
0.0,-0.0005003621336072,2.3841798305511475,-1.3296400785446167,0.000163099146448,0.083709642291069,0.0858406648039817,9.867409244179726e-05,0.0851003378629684,0.0762881860136985,,,,,,,,,,,,,,,,,,,,,,,,,,,,,,,,,,,,,,,,,,,,,,,,,,,,,,,
0.0,-0.0005003621336072,2.3841798305511475,-1.3296400785446167,0.000163099146448,0.083709642291069,0.0858406648039817,9.867409244179726e-05,0.0851003378629684,0.0762881860136985,,,,,,,,,,,,,,,,,,,,,,,,,,,,,,,,,,,,,,,,,,,,,,,,,,,,,,,
0.0,-0.0005003621336072,2.3841798305511475,-1.3296400785446167,0.000163099146448,0.083709642291069,0.0858406648039817,9.867409244179726e-05,0.0851003378629684,0.0762881860136985,,,,,,,,,,,,,,,,,,,,,,,,,,,,,,,,,,,,,,,,,,,,,,,,,,,,,,,
0.0,-0.0005003621336072,2.3841798305511475,-1.3296400785446167,0.000163099146448,0.083709642291069,0.0858406648039817,9.867409244179726e-05,0.0851003378629684,0.0762881860136985,,,,,,,,,,,,,,,,,,,,,,,,,,,,,,,,,,,,,,,,,,,,,,,,,,,,,,,
0.0,-0.0005003621336072,2.3841798305511475,-1.3296400785446167,0.000163099146448,0.083709642291069,0.0858406648039817,9.867409244179726e-05,0.0851003378629684,0.0762881860136985,,,,,,,,,,,,,,,,,,,,,,,,,,,,,,,,,,,,,,,,,,,,,,,,,,,,,,,
0.0,-0.0005003621336072,2.3841798305511475,-1.3296400785446167,0.000163099146448,0.083709642291069,0.0858406648039817,9.867409244179726e-05,0.0851003378629684,0.0762881860136985,0.0,2.1768808364868164,-1.3668039321899415,0.0,13.0,0.0,2.367496490478516,-1.3324716567993165,0.0,12.5,0.0,2.585291862487793,-1.2691715240478516,0.0,14.25,0.0,2.6761293411254883,-1.2573698043823243,0.0,13.0,,,,,,,,,,,,,,,,,,,,,,,,,,,,,,,,,,,
0.0,-0.0005003621336072,2.3841798305511475,-1.3296400785446167,0.000163099146448,0.083709642291069,0.0858406648039817,9.867409244179726e-05,0.0851003378629684,0.0762881860136985,0.0,2.160072326660156,-1.3356903076171875,0.0,12.75,0.0,2.5953054428100586,-1.2663105010986329,0.0,12.75,0.0,2.597808837890625,-1.2670257568359375,0.0,12.75,,,,,,,,,,,,,,,,,,,,,,,,,,,,,,,,,,,,,,,,
0.0,-0.0005003621336072,2.3841798305511475,-1.3296400785446167,0.000163099146448,0.083709642291069,0.0858406648039817,9.867409244179726e-05,0.0851003378629684,0.0762881860136985,0.0,2.625703811645508,-1.2491443634033204,0.0,14.25,0.0,2.681493759155273,-1.2688138961791993,0.0,13.5,,,,,,,,,,,,,,,,,,,,,,,,,,,,,,,,,,,,,,,,,,,,,
0.0,-0.0005003621336072,2.3841798305511475,-1.3296400785446167,0.000163099146448,0.083709642291069,0.0858406648039817,9.867409244179726e-05,0.0851003378629684,0.0762881860136985,0.0,2.623915672302246,-1.2366273880004883,0.0,13.25,0.0,2.678990364074707,-1.275966453552246,0.0,12.5,,,,,,,,,,,,,,,,,,,,,,,,,,,,,,,,,,,,,,,,,,,,,
0.0,-0.0005003621336072,2.3841798305511475,-1.3296400785446167,0.000163099146448,0.083709642291069,0.0858406648039817,9.867409244179726e-05,0.0851003378629684,0.0762881860136985,0.0,2.6428699493408203,-1.2158849716186524,0.0,13.5,0.0,2.683281898498535,-1.2688138961791993,0.0,13.0,,,,,,,,,,,,,,,,,,,,,,,,,,,,,,,,,,,,,,,,,,,,,
0.0,-0.0005003621336072,2.3841798305511475,-1.3296400785446167,0.000163099146448,0.083709642291069,0.0858406648039817,9.867409244179726e-05,0.0851003378629684,0.0762881860136985,0.0,2.644658088684082,-1.2309053421020508,0.0,12.75,0.0,2.6890039443969727,-1.2745359420776368,0.0,12.5,,,,,,,,,,,,,,,,,,,,,,,,,,,,,,,,,,,,,,,,,,,,,
0.0,-0.0005003621336072,2.3841798305511475,-1.3296400785446167,0.000163099146448,0.083709642291069,0.0858406648039817,9.867409244179726e-05,0.0851003378629684,0.0762881860136985,,,,,,,,,,,,,,,,,,,,,,,,,,,,,,,,,,,,,,,,,,,,,,,,,,,,,,,
0.0,-0.0005003621336072,2.3841798305511475,-1.3296400785446167,0.000163099146448,0.083709642291069,0.0858406648039817,9.867409244179726e-05,0.0851003378629684,0.0762881860136985,,,,,,,,,,,,,,,,,,,,,,,,,,,,,,,,,,,,,,,,,,,,,,,,,,,,,,,
0.0,-0.0005003621336072,2.3841798305511475,-1.3296400785446167,0.000163099146448,0.083709642291069,0.0858406648039817,9.867409244179726e-05,0.0851003378629684,0.0762881860136985,0.0,2.670407295227051,-1.3145902633666993,0.0,13.5,,,,,,,,,,,,,,,,,,,,,,,,,,,,,,,,,,,,,,,,,,,,,,,,,,
0.0,-0.0005003621336072,2.3841798305511475,-1.3296400785446167,0.000163099146448,0.083709642291069,0.0858406648039817,9.867409244179726e-05,0.0851003378629684,0.0762881860136985,0.0,2.669692039489746,-1.3192394256591797,0.0,13.5,0.0,2.644658088684082,-1.269529151916504,0.0,13.5,,,,,,,,,,,,,,,,,,,,,,,,,,,,,,,,,,,,,,,,,,,,,
0.0,-0.0005003621336072,2.3841798305511475,-1.3296400785446167,0.000163099146448,0.083709642291069,0.0858406648039817,9.867409244179726e-05,0.0851003378629684,0.0762881860136985,0.0,2.666831016540528,-1.326749610900879,0.0,13.75,0.0,2.6367902755737305,-1.270959663391113,0.0,13.75,,,,,,,,,,,,,,,,,,,,,,,,,,,,,,,,,,,,,,,,,,,,,
0.0,-0.0005003621336072,2.3841798305511475,-1.3296400785446167,0.000163099146448,0.083709642291069,0.0858406648039817,9.867409244179726e-05,0.0851003378629684,0.0762881860136985,0.0,2.6253461837768555,-1.296708869934082,0.0,14.25,0.0,2.666831016540528,-1.3242462158203125,0.0,14.5,,,,,,,,,,,,,,,,,,,,,,,,,,,,,,,,,,,,,,,,,,,,,
0.0,-0.0005003621336072,2.3841798305511475,-1.3296400785446167,0.000163099146448,0.083709642291069,0.0858406648039817,9.867409244179726e-05,0.0851003378629684,0.0762881860136985,,,,,,,,,,,,,,,,,,,,,,,,,,,,,,,,,,,,,,,,,,,,,,,,,,,,,,,
0.0,-0.0005003621336072,2.3841798305511475,-1.3296400785446167,0.000163099146448,0.083709642291069,0.0858406648039817,9.867409244179726e-05,0.0851003378629684,0.0762881860136985,,,,,,,,,,,,,,,,,,,,,,,,,,,,,,,,,,,,,,,,,,,,,,,,,,,,,,,
0.0,-0.0005003621336072,2.3841798305511475,-1.3296400785446167,0.000163099146448,0.083709642291069,0.0858406648039817,9.867409244179726e-05,0.0851003378629684,0.0762881860136985,,,,,,,,,,,,,,,,,,,,,,,,,,,,,,,,,,,,,,,,,,,,,,,,,,,,,,,
0.0,-0.0005003621336072,2.3841798305511475,-1.3296400785446167,0.000163099146448,0.083709642291069,0.0858406648039817,9.867409244179726e-05,0.0851003378629684,0.0762881860136985,,,,,,,,,,,,,,,,,,,,,,,,,,,,,,,,,,,,,,,,,,,,,,,,,,,,,,,
0.0,-0.0005003621336072,2.3841798305511475,-1.3296400785446167,0.000163099146448,0.083709642291069,0.0858406648039817,9.867409244179726e-05,0.0851003378629684,0.0762881860136985,,,,,,,,,,,,,,,,,,,,,,,,,,,,,,,,,,,,,,,,,,,,,,,,,,,,,,,
0.0,-0.0005003621336072,2.3841798305511475,-1.3296400785446167,0.000163099146448,0.083709642291069,0.0858406648039817,9.867409244179726e-05,0.0851003378629684,0.0762881860136985,,,,,,,,,,,,,,,,,,,,,,,,,,,,,,,,,,,,,,,,,,,,,,,,,,,,,,,
0.0,-0.0005003621336072,2.3841798305511475,-1.3296400785446167,0.000163099146448,0.083709642291069,0.0858406648039817,9.867409244179726e-05,0.0851003378629684,0.0762881860136985,,,,,,,,,,,,,,,,,,,,,,,,,,,,,,,,,,,,,,,,,,,,,,,,,,,,,,,
0.0,-0.0005003621336072,2.3841798305511475,-1.3296400785446167,0.000163099146448,0.083709642291069,0.0858406648039817,9.867409244179726e-05,0.0851003378629684,0.0762881860136985,,,,,,,,,,,,,,,,,,,,,,,,,,,,,,,,,,,,,,,,,,,,,,,,,,,,,,,
0.0,-0.0005003621336072,2.3841798305511475,-1.3296400785446167,0.000163099146448,0.083709642291069,0.0858406648039817,9.867409244179726e-05,0.0851003378629684,0.0762881860136985,,,,,,,,,,,,,,,,,,,,,,,,,,,,,,,,,,,,,,,,,,,,,,,,,,,,,,,
0.0,-0.0005003621336072,2.3841798305511475,-1.3296400785446167,0.000163099146448,0.083709642291069,0.0858406648039817,9.867409244179726e-05,0.0851003378629684,0.0762881860136985,,,,,,,,,,,,,,,,,,,,,,,,,,,,,,,,,,,,,,,,,,,,,,,,,,,,,,,
0.0,-0.0005003621336072,2.3841798305511475,-1.3296400785446167,0.000163099146448,0.083709642291069,0.0858406648039817,9.867409244179726e-05,0.0851003378629684,0.0762881860136985,,,,,,,,,,,,,,,,,,,,,,,,,,,,,,,,,,,,,,,,,,,,,,,,,,,,,,,
0.0,-0.0005003621336072,2.3841798305511475,-1.3296400785446167,0.000163099146448,0.083709642291069,0.0858406648039817,9.867409244179726e-05,0.0851003378629684,0.0762881860136985,,,,,,,,,,,,,,,,,,,,,,,,,,,,,,,,,,,,,,,,,,,,,,,,,,,,,,,
0.0,-0.0005003621336072,2.3841798305511475,-1.3296400785446167,0.000163099146448,0.083709642291069,0.0858406648039817,9.867409244179726e-05,0.0851003378629684,0.0762881860136985,,,,,,,,,,,,,,,,,,,,,,,,,,,,,,,,,,,,,,,,,,,,,,,,,,,,,,,
0.0,-0.0005003621336072,2.3841798305511475,-1.3296400785446167,0.000163099146448,0.083709642291069,0.0858406648039817,9.867409244179726e-05,0.0851003378629684,0.0762881860136985,0.0,2.5992393493652344,-1.294563102722168,0.0,15.25,0.0,2.6618242263793945,-1.3002851486206057,0.0,14.75,,,,,,,,,,,,,,,,,,,,,,,,,,,,,,,,,,,,,,,,,,,,,
0.0,-0.0005003621336072,2.3841798305511475,-1.3296400785446167,0.000163099146448,0.083709642291069,0.0858406648039817,9.867409244179726e-05,0.0851003378629684,0.0762881860136985,0.0,2.6192665100097656,-1.3020732879638672,0.0,14.5,0.0,2.6700496673583984,-1.3056495666503907,0.0,14.25,,,,,,,,,,,,,,,,,,,,,,,,,,,,,,,,,,,,,,,,,,,,,
0.0,-0.0005003621336072,2.3841798305511475,-1.3296400785446167,0.000163099146448,0.083709642291069,0.0858406648039817,9.867409244179726e-05,0.0851003378629684,0.0762881860136985,0.0,2.6192665100097656,-1.2684562683105467,0.0,15.75,0.0,2.670764923095703,-1.2899139404296875,0.0,15.75,,,,,,,,,,,,,,,,,,,,,,,,,,,,,,,,,,,,,,,,,,,,,
0.0,-0.0005003621336072,2.3841798305511475,-1.3296400785446167,0.000163099146448,0.083709642291069,0.0858406648039817,9.867409244179726e-05,0.0851003378629684,0.0762881860136985,0.0,2.575993537902832,-1.2791851043701172,0.0,16.75,0.0,2.6471614837646484,-1.3010004043579102,0.0,15.5,,,,,,,,,,,,,,,,,,,,,,,,,,,,,,,,,,,,,,,,,,,,,
0.0,-0.0005003621336072,2.3841798305511475,-1.3296400785446167,0.000163099146448,0.083709642291069,0.0858406648039817,9.867409244179726e-05,0.0851003378629684,0.0762881860136985,0.0,2.605319023132324,-1.2720325469970704,0.0,17.25,0.0,2.6578903198242188,-1.2974241256713868,0.0,16.75,,,,,,,,,,,,,,,,,,,,,,,,,,,,,,,,,,,,,,,,,,,,,
0.0,-0.0005003621336072,2.3841798305511475,-1.3296400785446167,0.000163099146448,0.083709642291069,0.0858406648039817,9.867409244179726e-05,0.0851003378629684,0.0762881860136985,0.0,2.6067495346069336,-1.2537935256958008,0.0,16.5,0.0,2.664327621459961,-1.279900360107422,0.0,16.0,,,,,,,,,,,,,,,,,,,,,,,,,,,,,,,,,,,,,,,,,,,,,
0.0,-0.0005003621336072,2.3841798305511475,-1.3296400785446167,0.000163099146448,0.083709642291069,0.0858406648039817,9.867409244179726e-05,0.0851003378629684,0.0762881860136985,0.0,2.2205114364624023,-1.2881258010864258,0.0,14.0,0.0,2.405047416687012,-1.2673833847045899,0.0,13.25,0.0,2.611398696899414,-1.2369850158691407,0.0,15.5,0.0,2.6646852493286133,-1.2881258010864258,0.0,15.25,,,,,,,,,,,,,,,,,,,,,,,,,,,,,,,,,,,
0.0,-0.0005003621336072,2.3841798305511475,-1.3296400785446167,0.000163099146448,0.083709642291069,0.0858406648039817,9.867409244179726e-05,0.0851003378629684,0.0762881860136985,0.0,2.5745630264282227,-1.2226799011230467,0.0,13.0,,,,,,,,,,,,,,,,,,,,,,,,,,,,,,,,,,,,,,,,,,,,,,,,,,
0.0,-0.0005003621336072,2.3841798305511475,-1.3296400785446167,0.000163099146448,0.083709642291069,0.0858406648039817,9.867409244179726e-05,0.0851003378629684,0.0762881860136985,0.0,2.5388002395629883,-1.2319782257080079,0.0,14.0,,,,,,,,,,,,,,,,,,,,,,,,,,,,,,,,,,,,,,,,,,,,,,,,,,
0.0,-0.0005003621336072,2.3841798305511475,-1.3296400785446167,0.000163099146448,0.083709642291069,0.0858406648039817,9.867409244179726e-05,0.0851003378629684,0.0762881860136985,0.0,2.210855484008789,-1.2680986404418944,0.0,16.0,,,,,,,,,,,,,,,,,,,,,,,,,,,,,,,,,,,,,,,,,,,,,,,,,,
0.0,-0.0005003621336072,2.3841798305511475,-1.3296400785446167,0.000163099146448,0.083709642291069,0.0858406648039817,9.867409244179726e-05,0.0851003378629684,0.0762881860136985,0.0,2.208709716796875,-1.2752511978149415,0.0,15.25,,,,,,,,,,,,,,,,,,,,,,,,,,,,,,,,,,,,,,,,,,,,,,,,,,
0.0,-0.0005003621336072,2.3841798305511475,-1.3296400785446167,0.000163099146448,0.083709642291069,0.0858406648039817,9.867409244179726e-05,0.0851003378629684,0.0762881860136985,0.0,2.2083520889282227,-1.2666681289672852,0.0,13.0,,,,,,,,,,,,,,,,,,,,,,,,,,,,,,,,,,,,,,,,,,,,,,,,,,
0.0,-0.0005003621336072,2.3841798305511475,-1.3296400785446167,0.000163099146448,0.083709642291069,0.0858406648039817,9.867409244179726e-05,0.0851003378629684,0.0762881860136985,0.0,2.204775810241699,-1.2849071502685547,0.0,12.25,,,,,,,,,,,,,,,,,,,,,,,,,,,,,,,,,,,,,,,,,,,,,,,,,,
0.0,-0.0005003621336072,2.3841798305511475,-1.3296400785446167,0.000163099146448,0.083709642291069,0.0858406648039817,9.867409244179726e-05,0.0851003378629684,0.0762881860136985,,,,,,,,,,,,,,,,,,,,,,,,,,,,,,,,,,,,,,,,,,,,,,,,,,,,,,,
0.0,-0.0005003621336072,2.3841798305511475,-1.3296400785446167,0.000163099146448,0.083709642291069,0.0858406648039817,9.867409244179726e-05,0.0851003378629684,0.0762881860136985,0.0,2.58779525756836,-1.2641647338867188,0.0,13.75,0.0,2.639293670654297,-1.320669937133789,0.0,12.0,,,,,,,,,,,,,,,,,,,,,,,,,,,,,,,,,,,,,,,,,,,,,
0.0,-0.0005003621336072,2.3841798305511475,-1.3296400785446167,0.000163099146448,0.083709642291069,0.0858406648039817,9.867409244179726e-05,0.0851003378629684,0.0762881860136985,0.0,2.2144317626953125,-1.3285377502441407,0.0,12.25,0.0,2.391815185546875,-1.293847846984863,0.0,12.75,0.0,2.564549446105957,-1.2731054306030272,0.0,14.0,,,,,,,,,,,,,,,,,,,,,,,,,,,,,,,,,,,,,,,,
0.0,-0.0005003621336072,2.3841798305511475,-1.3296400785446167,0.000163099146448,0.083709642291069,0.0858406648039817,9.867409244179726e-05,0.0851003378629684,0.0762881860136985,0.0,2.6013851165771484,-1.2262561798095704,0.0,13.5,,,,,,,,,,,,,,,,,,,,,,,,,,,,,,,,,,,,,,,,,,,,,,,,,,
0.0,-0.0005003621336072,2.3841798305511475,-1.3296400785446167,0.000163099146448,0.083709642291069,0.0858406648039817,9.867409244179726e-05,0.0851003378629684,0.0762881860136985,0.0,2.6285648345947266,-1.2334087371826172,0.0,12.75,,,,,,,,,,,,,,,,,,,,,,,,,,,,,,,,,,,,,,,,,,,,,,,,,,
0.0,-0.0005003621336072,2.3841798305511475,-1.3296400785446167,0.000163099146448,0.083709642291069,0.0858406648039817,9.867409244179726e-05,0.0851003378629684,0.0762881860136985,,,,,,,,,,,,,,,,,,,,,,,,,,,,,,,,,,,,,,,,,,,,,,,,,,,,,,,
0.0,-0.0005003621336072,2.3841798305511475,-1.3296400785446167,0.000163099146448,0.083709642291069,0.0858406648039817,9.867409244179726e-05,0.0851003378629684,0.0762881860136985,,,,,,,,,,,,,,,,,,,,,,,,,,,,,,,,,,,,,,,,,,,,,,,,,,,,,,,
0.0,-0.0005003621336072,2.3841798305511475,-1.3296400785446167,0.000163099146448,0.083709642291069,0.0858406648039817,9.867409244179726e-05,0.0851003378629684,0.0762881860136985,,,,,,,,,,,,,,,,,,,,,,,,,,,,,,,,,,,,,,,,,,,,,,,,,,,,,,,
0.0,-0.0005003621336072,2.3841798305511475,-1.3296400785446167,0.000163099146448,0.083709642291069,0.0858406648039817,9.867409244179726e-05,0.0851003378629684,0.0762881860136985,,,,,,,,,,,,,,,,,,,,,,,,,,,,,,,,,,,,,,,,,,,,,,,,,,,,,,,
0.0,-0.0005003621336072,2.3841798305511475,-1.3296400785446167,0.000163099146448,0.083709642291069,0.0858406648039817,9.867409244179726e-05,0.0851003378629684,0.0762881860136985,,,,,,,,,,,,,,,,,,,,,,,,,,,,,,,,,,,,,,,,,,,,,,,,,,,,,,,
0.0,-0.0005003621336072,2.3841798305511475,-1.3296400785446167,0.000163099146448,0.083709642291069,0.0858406648039817,9.867409244179726e-05,0.0851003378629684,0.0762881860136985,,,,,,,,,,,,,,,,,,,,,,,,,,,,,,,,,,,,,,,,,,,,,,,,,,,,,,,
0.0,-0.0005003621336072,2.3841798305511475,-1.3296400785446167,0.000163099146448,0.083709642291069,0.0858406648039817,9.867409244179726e-05,0.0851003378629684,0.0762881860136985,,,,,,,,,,,,,,,,,,,,,,,,,,,,,,,,,,,,,,,,,,,,,,,,,,,,,,,
0.0,-0.0005003621336072,2.3841798305511475,-1.3296400785446167,0.000163099146448,0.083709642291069,0.0858406648039817,9.867409244179726e-05,0.0851003378629684,0.0762881860136985,,,,,,,,,,,,,,,,,,,,,,,,,,,,,,,,,,,,,,,,,,,,,,,,,,,,,,,
0.0,-0.0005003621336072,2.3841798305511475,-1.3296400785446167,0.000163099146448,0.083709642291069,0.0858406648039817,9.867409244179726e-05,0.0851003378629684,0.0762881860136985,,,,,,,,,,,,,,,,,,,,,,,,,,,,,,,,,,,,,,,,,,,,,,,,,,,,,,,
0.0,-0.0005003621336072,2.3841798305511475,-1.3296400785446167,0.000163099146448,0.083709642291069,0.0858406648039817,9.867409244179726e-05,0.0851003378629684,0.0762881860136985,,,,,,,,,,,,,,,,,,,,,,,,,,,,,,,,,,,,,,,,,,,,,,,,,,,,,,,
0.0,-0.0005003621336072,2.3841798305511475,-1.3296400785446167,0.000163099146448,0.083709642291069,0.0858406648039817,9.867409244179726e-05,0.0851003378629684,0.0762881860136985,,,,,,,,,,,,,,,,,,,,,,,,,,,,,,,,,,,,,,,,,,,,,,,,,,,,,,,
0.0,-0.0005003621336072,2.3841798305511475,-1.3296400785446167,0.000163099146448,0.083709642291069,0.0858406648039817,9.867409244179726e-05,0.0851003378629684,0.0762881860136985,,,,,,,,,,,,,,,,,,,,,,,,,,,,,,,,,,,,,,,,,,,,,,,,,,,,,,,
0.0,-0.0005003621336072,2.3841798305511475,-1.3296400785446167,0.000163099146448,0.083709642291069,0.0858406648039817,9.867409244179726e-05,0.0851003378629684,0.0762881860136985,,,,,,,,,,,,,,,,,,,,,,,,,,,,,,,,,,,,,,,,,,,,,,,,,,,,,,,
0.0,-0.0005003621336072,2.3841798305511475,-1.3296400785446167,0.000163099146448,0.083709642291069,0.0858406648039817,9.867409244179726e-05,0.0851003378629684,0.0762881860136985,0.0,2.210855484008789,-1.341054725646973,0.0,12.5,0.0,2.405405044555664,-1.2999275207519532,0.0,13.25,0.0,2.6578903198242188,-1.297781753540039,0.0,14.25,0.0,2.5960206985473637,-1.249859619140625,0.0,15.75,,,,,,,,,,,,,,,,,,,,,,,,,,,,,,,,,,,
0.0,-0.0005003621336072,2.3841798305511475,-1.3296400785446167,0.000163099146448,0.083709642291069,0.0858406648039817,9.867409244179726e-05,0.0851003378629684,0.0762881860136985,0.0,2.477645874023437,-1.2791851043701172,0.0,15.25,0.0,2.6099681854248047,-1.2677410125732422,0.0,19.75,0.0,2.645730972290039,-1.2845495223999024,0.0,18.25,,,,,,,,,,,,,,,,,,,,,,,,,,,,,,,,,,,,,,,,
0.0,-0.0005003621336072,2.3841798305511475,-1.3296400785446167,0.000163099146448,0.083709642291069,0.0858406648039817,9.867409244179726e-05,0.0851003378629684,0.0762881860136985,0.0,2.196907997131348,-1.341412353515625,0.0,13.0,0.0,2.482295036315918,-1.2523630142211915,0.0,13.75,0.0,2.6235580444335938,-1.2845495223999024,0.0,20.0,0.0,2.635717391967773,-1.3170936584472657,0.0,19.0,,,,,,,,,,,,,,,,,,,,,,,,,,,,,,,,,,,
0.0,-0.0005003621336072,2.3841798305511475,-1.3296400785446167,0.000163099146448,0.083709642291069,0.0858406648039817,9.867409244179726e-05,0.0851003378629684,0.0762881860136985,0.0,2.032041549682617,-1.3564327239990235,0.0,12.25,0.0,2.184391021728516,-1.3879039764404297,0.0,17.5,0.0,2.3821592330932617,-1.3356903076171875,0.0,18.0,0.0,2.56955623626709,-1.2849071502685547,0.0,19.75,0.0,2.63357162475586,-1.3095834732055665,0.0,18.25,,,,,,,,,,,,,,,,,,,,,,,,,,,,,,
0.0,-0.0005003621336072,2.3841798305511475,-1.3296400785446167,0.000163099146448,0.083709642291069,0.0858406648039817,9.867409244179726e-05,0.0851003378629684,0.0762881860136985,0.0,2.1861791610717773,-1.3685920715332032,0.0,16.75,0.0,2.3746490478515625,-1.3374784469604493,0.0,16.75,0.0,2.5763511657714844,-1.28419189453125,0.0,18.5,0.0,2.650022506713867,-1.2931325912475586,0.0,17.5,,,,,,,,,,,,,,,,,,,,,,,,,,,,,,,,,,,
0.0,-0.0005003621336072,2.3841798305511475,-1.3296400785446167,0.000163099146448,0.083709642291069,0.0858406648039817,9.867409244179726e-05,0.0851003378629684,0.0762881860136985,0.0,2.0177364349365234,-1.338193702697754,0.0,13.0,0.0,2.1514892578125,-1.397559928894043,0.0,17.5,0.0,2.338886260986328,-1.3617971420288086,0.0,16.5,0.0,2.5652647018432617,-1.3067224502563477,0.0,18.0,0.0,2.648591995239258,-1.3013580322265625,0.0,17.0,,,,,,,,,,,,,,,,,,,,,,,,,,,,,,
0.0,-0.0005003621336072,2.3841798305511475,-1.3296400785446167,0.000163099146448,0.083709642291069,0.0858406648039817,9.867409244179726e-05,0.0851003378629684,0.0762881860136985,0.0,2.15756893157959,-1.383970069885254,0.0,16.75,0.0,2.342820167541504,-1.3814666748046875,0.0,15.5,0.0,2.59244441986084,-1.3052919387817385,0.0,18.25,0.0,2.65359878540039,-1.3271072387695313,0.0,18.0,,,,,,,,,,,,,,,,,,,,,,,,,,,,,,,,,,,
0.0,-0.0005003621336072,2.3841798305511475,-1.3296400785446167,0.000163099146448,0.083709642291069,0.0858406648039817,9.867409244179726e-05,0.0851003378629684,0.0762881860136985,0.0,2.135038375854492,-1.399705696105957,0.0,15.75,0.0,2.421140670776367,-1.3260343551635743,0.0,13.0,0.0,2.6661157608032227,-1.308152961730957,0.0,20.5,0.0,2.7283430099487305,-1.332114028930664,0.0,12.25,0.0,2.6525259017944336,-1.270959663391113,0.0,20.0,,,,,,,,,,,,,,,,,,,,,,,,,,,,,,
0.0,-0.0005003621336072,2.3841798305511475,-1.3296400785446167,0.000163099146448,0.083709642291069,0.0858406648039817,9.867409244179726e-05,0.0851003378629684,0.0762881860136985,0.0,2.0188093185424805,-1.37574462890625,0.0,12.25,0.0,2.157211303710937,-1.3542869567871094,0.0,17.25,0.0,2.6682615280151367,-1.3192394256591797,0.0,21.25,0.0,2.646446228027344,-1.275966453552246,0.0,20.0,0.0,2.735137939453125,-1.308152961730957,0.0,13.0,,,,,,,,,,,,,,,,,,,,,,,,,,,,,,
0.0,-0.0005003621336072,2.3841798305511475,-1.3296400785446167,0.000163099146448,0.083709642291069,0.0858406648039817,9.867409244179726e-05,0.0851003378629684,0.0762881860136985,0.0,2.033829689025879,-1.3900497436523438,0.0,12.5,0.0,2.160072326660156,-1.3789632797241211,0.0,17.75,0.0,2.628922462463379,-1.2866952896118165,0.0,21.25,0.0,2.66718864440918,-1.311371612548828,0.0,21.75,0.0,2.728700637817383,-1.3271072387695313,0.0,13.75,,,,,,,,,,,,,,,,,,,,,,,,,,,,,,
0.0,-0.0005003621336072,2.3841798305511475,-1.3296400785446167,0.000163099146448,0.083709642291069,0.0858406648039817,9.867409244179726e-05,0.0851003378629684,0.0762881860136985,0.0,2.209067344665528,-1.3056495666503907,0.0,15.25,0.0,2.4404525756835938,-1.3052919387817385,0.0,14.75,0.0,2.66718864440918,-1.307080078125,0.0,21.5,0.0,2.7294158935546875,-1.3303258895874024,0.0,13.5,0.0,2.6443004608154297,-1.2673833847045899,0.0,20.75,,,,,,,,,,,,,,,,,,,,,,,,,,,,,,
0.0,-0.0005003621336072,2.3841798305511475,-1.3296400785446167,0.000163099146448,0.083709642291069,0.0858406648039817,9.867409244179726e-05,0.0851003378629684,0.0762881860136985,0.0,2.1611452102661133,-1.3807514190673829,0.0,16.25,0.0,2.4329423904418945,-1.3188817977905272,0.0,15.25,0.0,2.663612365722656,-1.3006427764892579,0.0,21.75,0.0,2.7265548706054688,-1.3274648666381836,0.0,13.5,0.0,2.643585205078125,-1.2638071060180665,0.0,21.25,,,,,,,,,,,,,,,,,,,,,,,,,,,,,,
0.0,-0.0005003621336072,2.3841798305511475,-1.3296400785446167,0.000163099146448,0.083709642291069,0.0858406648039817,9.867409244179726e-05,0.0851003378629684,0.0762881860136985,0.0,2.0427703857421875,-1.3782480239868165,0.0,12.5,0.0,2.148270606994629,-1.3775327682495115,0.0,16.5,0.0,2.4243593215942383,-1.3449886322021485,0.0,14.25,0.0,2.6618242263793945,-1.3102987289428711,0.0,22.0,0.0,2.7261972427368164,-1.319597053527832,0.0,13.5,0.0,2.6543140411376958,-1.2645223617553711,0.0,21.5,,,,,,,,,,,,,,,,,,,,,,,,,
0.0,-0.0005003621336072,2.3841798305511475,-1.3296400785446167,0.000163099146448,0.083709642291069,0.0858406648039817,9.867409244179726e-05,0.0851003378629684,0.0762881860136985,0.0,2.486586570739746,-1.2981393814086915,0.0,15.0,0.0,2.639293670654297,-1.2902715682983399,0.0,22.25,0.0,2.656102180480957,-1.3102987289428711,0.0,22.0,0.0,2.7208328247070312,-1.330683517456055,0.0,13.5,,,,,,,,,,,,,,,,,,,,,,,,,,,,,,,,,,,
0.0,-0.0005003621336072,2.3841798305511475,-1.3296400785446167,0.000163099146448,0.083709642291069,0.0858406648039817,9.867409244179726e-05,0.0851003378629684,0.0762881860136985,0.0,2.4483203887939453,-1.3128021240234375,0.0,15.25,0.0,2.663612365722656,-1.3013580322265625,0.0,22.25,0.0,2.719044685363769,-1.3274648666381836,0.0,14.0,0.0,2.6503801345825195,-1.272747802734375,0.0,22.0,,,,,,,,,,,,,,,,,,,,,,,,,,,,,,,,,,,
0.0,-0.0005003621336072,2.3841798305511475,-1.3296400785446167,0.000163099146448,0.083709642291069,0.0858406648039817,9.867409244179726e-05,0.0851003378629684,0.0762881860136985,0.0,2.089977264404297,-1.274893569946289,0.0,13.5,0.0,2.1364688873291016,-1.2952783584594727,0.0,16.75,0.0,2.653956413269043,-1.2405612945556639,0.0,18.0,0.0,2.6700496673583984,-1.2595155715942383,0.0,17.75,,,,,,,,,,,,,,,,,,,,,,,,,,,,,,,,,,,
0.0,-0.0005003621336072,2.3841798305511475,-1.3296400785446167,0.000163099146448,0.083709642291069,0.0858406648039817,9.867409244179726e-05,0.0851003378629684,0.0762881860136985,0.0,2.097487449645996,-1.2824037551879883,0.0,13.25,0.0,2.142190933227539,-1.3238885879516602,0.0,17.75,0.0,2.5931596755981445,-1.190493392944336,0.0,12.5,,,,,,,,,,,,,,,,,,,,,,,,,,,,,,,,,,,,,,,,
0.0,-0.0005003621336072,2.3841798305511475,-1.3296400785446167,0.000163099146448,0.083709642291069,0.0858406648039817,9.867409244179726e-05,0.0851003378629684,0.0762881860136985,0.0,2.075672149658203,-1.3249614715576172,0.0,14.75,0.0,2.1532773971557617,-1.341054725646973,0.0,19.5,0.0,2.2476911544799805,-1.3524988174438477,0.0,16.0,0.0,2.5316476821899414,-1.2541511535644532,0.0,12.75,0.0,2.67183780670166,-1.3027885437011721,0.0,12.25,,,,,,,,,,,,,,,,,,,,,,,,,,,,,,
0.0,-0.0005003621336072,2.3841798305511475,-1.3296400785446167,0.000163099146448,0.083709642291069,0.0858406648039817,9.867409244179726e-05,0.0851003378629684,0.0762881860136985,0.0,2.068161964416504,-1.3260343551635743,0.0,15.0,0.0,2.146124839782715,-1.3406970977783204,0.0,19.25,0.0,2.2455453872680664,-1.3213851928710938,0.0,15.75,,,,,,,,,,,,,,,,,,,,,,,,,,,,,,,,,,,,,,,,
0.0,-0.0005003621336072,2.3841798305511475,-1.3296400785446167,0.000163099146448,0.083709642291069,0.0858406648039817,9.867409244179726e-05,0.0851003378629684,0.0762881860136985,0.0,2.0853281021118164,-1.296708869934082,0.0,15.0,0.0,2.1665096282958984,-1.3149478912353516,0.0,19.5,0.0,2.254486083984375,-1.3274648666381836,0.0,16.25,,,,,,,,,,,,,,,,,,,,,,,,,,,,,,,,,,,,,,,,
0.0,-0.0005003621336072,2.3841798305511475,-1.3296400785446167,0.000163099146448,0.083709642291069,0.0858406648039817,9.867409244179726e-05,0.0851003378629684,0.0762881860136985,0.0,2.0742416381835938,-1.3138750076293944,0.0,15.25,0.0,2.160787582397461,-1.318524169921875,0.0,19.5,0.0,2.241969108581543,-1.3374784469604493,0.0,15.5,,,,,,,,,,,,,,,,,,,,,,,,,,,,,,,,,,,,,,,,
0.0,-0.0005003621336072,2.3841798305511475,-1.3296400785446167,0.000163099146448,0.083709642291069,0.0858406648039817,9.867409244179726e-05,0.0851003378629684,0.0762881860136985,0.0,2.0699501037597656,-1.3203123092651368,0.0,15.25,0.0,2.157926559448242,-1.3263919830322266,0.0,19.5,0.0,2.236247062683105,-1.337120819091797,0.0,15.5,,,,,,,,,,,,,,,,,,,,,,,,,,,,,,,,,,,,,,,,
0.0,-0.0005003621336072,2.3841798305511475,-1.3296400785446167,0.000163099146448,0.083709642291069,0.0858406648039817,9.867409244179726e-05,0.0851003378629684,0.0762881860136985,0.0,2.0627975463867188,-1.3303258895874024,0.0,16.25,0.0,2.1371841430664062,-1.3328292846679688,0.0,19.75,0.0,2.2298097610473637,-1.315305519104004,0.0,15.5,,,,,,,,,,,,,,,,,,,,,,,,,,,,,,,,,,,,,,,,
0.0,-0.0005003621336072,2.3841798305511475,-1.3296400785446167,0.000163099146448,0.083709642291069,0.0858406648039817,9.867409244179726e-05,0.0851003378629684,0.0762881860136985,0.0,2.0542144775390625,-1.3743141174316407,0.0,15.5,0.0,2.111434936523437,-1.385042953491211,0.0,19.25,0.0,2.234458923339844,-1.3353326797485352,0.0,15.0,,,,,,,,,,,,,,,,,,,,,,,,,,,,,,,,,,,,,,,,
0.0,-0.0005003621336072,2.3841798305511475,-1.3296400785446167,0.000163099146448,0.083709642291069,0.0858406648039817,9.867409244179726e-05,0.0851003378629684,0.0762881860136985,0.0,2.052783966064453,-1.3703802108764649,0.0,16.25,0.0,2.1125078201293945,-1.3896921157836915,0.0,20.0,0.0,2.184391021728516,-1.3986328125,0.0,16.0,,,,,,,,,,,,,,,,,,,,,,,,,,,,,,,,,,,,,,,,
0.0,-0.0005003621336072,2.3841798305511475,-1.3296400785446167,0.000163099146448,0.083709642291069,0.0858406648039817,9.867409244179726e-05,0.0851003378629684,0.0762881860136985,0.0,2.016305923461914,-1.3857582092285157,0.0,14.0,,,,,,,,,,,,,,,,,,,,,,,,,,,,,,,,,,,,,,,,,,,,,,,,,,
0.0,-0.0005003621336072,2.3841798305511475,-1.3296400785446167,0.000163099146448,0.083709642291069,0.0858406648039817,9.867409244179726e-05,0.0851003378629684,0.0762881860136985,0.0,2.0602941513061523,-1.3020732879638672,0.0,13.25,0.0,2.132177352905273,-1.3460615158081057,0.0,16.5,,,,,,,,,,,,,,,,,,,,,,,,,,,,,,,,,,,,,,,,,,,,,
0.0,-0.0005003621336072,2.3841798305511475,-1.3296400785446167,0.000163099146448,0.083709642291069,0.0858406648039817,9.867409244179726e-05,0.0851003378629684,0.0762881860136985,0.0,2.1532773971557617,-1.3514259338378907,0.0,16.25,0.0,2.2430419921875,-1.3421276092529297,0.0,13.25,,,,,,,,,,,,,,,,,,,,,,,,,,,,,,,,,,,,,,,,,,,,,
0.0,-0.0005003621336072,2.3841798305511475,-1.3296400785446167,0.000163099146448,0.083709642291069,0.0858406648039817,9.867409244179726e-05,0.0851003378629684,0.0762881860136985,0.0,2.1539926528930664,-1.3546445846557615,0.0,15.25,0.0,2.2437572479248047,-1.3199546813964844,0.0,12.75,,,,,,,,,,,,,,,,,,,,,,,,,,,,,,,,,,,,,,,,,,,,,
0.0,-0.0005003621336072,2.3841798305511475,-1.3296400785446167,0.000163099146448,0.083709642291069,0.0858406648039817,9.867409244179726e-05,0.0851003378629684,0.0762881860136985,0.0,2.1729469299316406,-1.372525978088379,0.0,16.0,0.0,2.235889434814453,-1.3449886322021485,0.0,14.5,,,,,,,,,,,,,,,,,,,,,,,,,,,,,,,,,,,,,,,,,,,,,
