tid,posx,posy,posz,velx,vely,velz,accx,accy,accz,pointx1,pointy1,pointz1,doppler1,snr1,pointx2,pointy2,pointz2,doppler2,snr2,pointx3,pointy3,pointz3,doppler3,snr3,pointx4,pointy4,pointz4,doppler4,snr4,pointx5,pointy5,pointz5,doppler5,snr5,pointx6,pointy6,pointz6,doppler6,snr6,pointx7,pointy7,pointz7,doppler7,snr7,pointx8,pointy8,pointz8,doppler8,snr8,pointx9,pointy9,pointz9,doppler9,snr9,pointx10,pointy10,pointz10,doppler10,snr10,pointx11,pointy11,pointz11,doppler11,snr11,pointx12,pointy12,pointz12,doppler12,snr12,pointx13,pointy13,pointz13,doppler13,snr13,pointx14,pointy14,pointz14,doppler14,snr14,pointx15,pointy15,pointz15,doppler15,snr15,pointx16,pointy16,pointz16,doppler16,snr16,pointx17,pointy17,pointz17,doppler17,snr17
0.0,0.031514231115579605,1.4640791416168213,-1.0563936233520508,0.0033465169835835695,0.155471533536911,-0.11217913776636124,0.0,0.0,0.0,0.0,1.5238523483276367,-1.2499094009399414,0.19175104796886444,21.0,0.0,1.5639066696166992,-1.3132095336914062,0.19175104796886444,17.25,0.0,1.4759302139282227,-1.065373420715332,0.19175104796886444,20.25,0.0,1.3157129287719727,-0.813603401184082,0.19175104796886444,18.75,0.0,1.39617919921875,-0.8769035339355469,0.19175104796886444,20.75,0.0,0.8736848831176758,0.27358531951904297,0.19175104796886444,25.75,0.0,0.98419189453125,0.41306018829345703,0.3835020959377289,29.5,0.0,0.9995698928833008,0.4996061325073242,0.3835020959377289,25.0,0.0,1.450181007385254,-1.1794567108154297,0.0,17.25,0.0,1.4154911041259766,-0.9087324142456055,0.0,13.5,,,,,,,,,,,,,,,,,,,,,,,,,,,,,,,,,,,
0.0,0.03129454329609871,1.479678988456726,-1.06858491897583,-0.002224010182544589,0.15602532029151917,-0.12197993695735931,-0.000542878289707005,0.0005399477086029947,-0.0013572580646723509,0.0,1.5664100646972656,-1.1959075927734375,0.19175104796886444,16.75,0.0,1.6139745712280273,-1.2331008911132812,0.19175104796886444,21.75,0.0,1.6551017761230469,-1.2352466583251953,0.19175104796886444,19.0,0.0,0.8847713470458984,0.23496150970458984,0.19175104796886444,32.75,0.0,1.0188817977905273,0.4101991653442383,0.3835020959377289,38.5,0.0,1.016378402709961,0.4992485046386719,0.3835020959377289,35.0,0.0,1.0689496994018555,0.5697011947631836,0.3835020959377289,22.5,0.0,1.4702081680297852,-1.1458396911621094,0.0,17.75,0.0,1.5327930450439453,-1.2699365615844727,0.0,19.5,,,,,,,,,,,,,,,,,,,,,,,,,,,,,,,,,,,,,,,,
0.0,0.027792921289801598,1.5020583868026733,-1.0742496252059937,-0.01895955577492714,0.19197848439216614,-0.0896976962685585,-0.0035304920747876167,0.020932801067829132,-0.0042261118069291115,0.0,1.532435417175293,-1.2238025665283203,0.19175104796886444,18.5,0.0,1.479506492614746,-1.0421276092529297,0.19175104796886444,18.75,0.0,1.656174659729004,-1.244187355041504,0.19175104796886444,14.75,0.0,1.4187097549438477,-0.8314847946166992,0.3835020959377289,19.0,0.0,1.3672113418579102,-0.6355047225952148,0.19175104796886444,17.25,0.0,0.9108781814575195,0.091552734375,0.19175104796886444,23.0,0.0,1.0253190994262695,0.13625621795654297,0.19175104796886444,25.0,0.0,1.0689496994018555,0.2167224884033203,0.19175104796886444,20.25,0.0,1.3314485549926758,-0.6219148635864258,0.0,14.0,,,,,,,,,,,,,,,,,,,,,,,,,,,,,,,,,,,,,,,,
0.0,0.020733535289764404,1.537265658378601,-1.0715123414993286,-0.03713357448577881,0.25644052028656006,-0.05401826649904251,-0.007987015880644321,0.08396129310131073,-0.02455688640475273,0.0,1.6082525253295898,-1.119375228881836,0.19175104796886444,19.25,0.0,1.6454458236694336,-1.2273788452148438,0.19175104796886444,15.25,0.0,1.3049840927124023,-0.7903575897216797,0.3835020959377289,12.75,0.0,1.485586166381836,-0.8186101913452148,0.3835020959377289,18.75,0.0,1.5456676483154297,-0.9452104568481445,0.3835020959377289,19.0,0.0,1.0457038879394531,0.0007152557373046875,0.19175104796886444,21.0,0.0,0.914454460144043,0.04756450653076172,0.19175104796886444,20.0,0.0,1.2066364288330078,0.46455860137939453,0.19175104796886444,17.25,0.0,1.1036396026611328,0.5639791488647461,0.19175104796886444,24.0,0.0,0.9176731109619141,0.7681846618652344,0.19175104796886444,19.75,0.0,1.5181303024291992,-1.0553598403930664,0.0,20.75,0.0,1.3332366943359375,-0.6916522979736328,0.0,14.25,,,,,,,,,,,,,,,,,,,,,,,,,
0.0,0.012091491371393204,1.6105148792266846,-1.0336403846740723,-0.05106765031814575,0.4042719006538391,0.054207272827625275,-0.012555619701743126,0.19277678430080414,-0.014127291738986969,0.0,1.6318559646606445,-0.9441375732421875,0.9587552398443222,16.75,0.0,1.7262697219848633,-1.0911226272583008,0.19175104796886444,21.5,0.0,1.795649528503418,-1.1218786239624023,0.19175104796886444,21.25,0.0,1.5259981155395508,-0.8003711700439453,0.3835020959377289,12.75,0.0,2.3453235626220703,-0.4373788833618164,0.19175104796886444,14.25,0.0,2.5970935821533203,-0.17595291137695312,-0.19175104796886444,13.5,0.0,2.558469772338867,-0.010013580322265625,-0.19175104796886444,17.0,0.0,0.9108781814575195,0.09047985076904297,0.19175104796886444,19.75,0.0,1.0728836059570312,0.16987323760986328,0.19175104796886444,23.5,0.0,1.0993480682373047,0.3590583801269531,0.19175104796886444,23.0,0.0,1.1490583419799805,0.5110502243041992,0.19175104796886444,15.5,0.0,1.5317201614379883,-1.0521411895751953,0.0,20.5,0.0,1.6433000564575195,-1.1544227600097656,0.0,23.5,0.0,1.7330646514892578,-1.153707504272461,0.0,21.5,0.0,2.002716064453125,-1.0010004043579102,0.0,12.5,0.0,1.0274648666381836,0.48351287841796875,0.0,27.75,0.0,1.074671745300293,0.6029605865478516,0.0,17.5
0.0,0.006037760991603136,1.6491544246673584,-1.0286269187927246,-0.05431712791323662,0.40439942479133606,0.05952046811580658,-0.013458630070090294,0.1365065723657608,0.01648365519940853,0.0,1.8603801727294922,-1.2238025665283203,0.19175104796886444,15.0,0.0,1.8042325973510742,-1.076817512512207,0.19175104796886444,17.25,0.0,1.8357038497924805,-1.1147260665893555,0.19175104796886444,20.0,0.0,0.9123086929321289,0.07617473602294922,0.19175104796886444,19.5,0.0,2.564549446105957,0.20241737365722656,-0.19175104796886444,15.25,0.0,1.0943412780761719,0.12731552124023438,0.19175104796886444,23.75,0.0,2.596735954284668,0.3819465637207031,-0.19175104796886444,12.0,0.0,1.1140108108520508,0.2503395080566406,0.19175104796886444,21.5,0.0,1.1508464813232422,0.48351287841796875,0.19175104796886444,14.75,0.0,1.5424489974975586,-1.0453462600708008,0.0,19.75,0.0,1.0385513305664062,0.4774332046508789,0.0,27.25,0.0,1.1136531829833984,0.5435943603515625,0.0,17.0,,,,,,,,,,,,,,,,,,,,,,,,,
0.0,0.0009405454620718956,1.7136200666427612,-0.9691562652587891,-0.054825056344270706,0.45258283615112305,0.17904135584831238,-0.012897517532110214,0.1204301118850708,0.11433953791856766,0.0,1.8428564071655273,-1.180887222290039,0.19175104796886444,13.5,0.0,1.6690492630004883,-1.0017156600952148,0.3835020959377289,12.25,0.0,1.7895698547363281,-1.0896921157836914,0.19175104796886444,21.25,0.0,1.8024444580078125,-1.0846853256225586,0.19175104796886444,22.0,0.0,1.2863874435424805,-0.11730194091796875,0.3835020959377289,18.75,0.0,1.1941194534301758,0.023603439331054688,0.3835020959377289,24.5,0.0,1.1394023895263672,0.09262561798095703,0.3835020959377289,24.75,0.0,0.9105205535888672,0.09655952453613281,0.3835020959377289,19.0,0.0,1.5445947647094727,-1.0499954223632812,0.0,19.75,0.0,1.3142824172973633,-0.2961158752441406,0.0,14.25,0.0,1.0578632354736328,0.43022632598876953,0.0,26.0,,,,,,,,,,,,,,,,,,,,,,,,,,,,,,
0.0,-0.0021247160620987415,1.7617665529251099,-0.8991878628730774,-0.05126821994781494,0.4460142254829407,0.3009128272533417,-0.009176005609333515,0.0539284348487854,0.2228710651397705,0.0,1.7799139022827148,-1.1909008026123047,0.19175104796886444,20.5,0.0,1.8167495727539062,-1.1379718780517578,0.19175104796886444,22.5,0.0,1.9594430923461914,-1.008152961730957,0.19175104796886444,15.5,0.0,1.283884048461914,-0.4119873046875,0.19175104796886444,14.0,0.0,1.3439655303955078,-0.3368854522705078,0.19175104796886444,18.0,0.0,1.4426708221435547,-0.28896331787109375,0.19175104796886444,12.5,0.0,1.1011362075805664,0.25784969329833984,0.3835020959377289,18.25,0.0,1.1172294616699219,0.5110502243041992,0.3835020959377289,20.5,0.0,1.097559928894043,0.6963014602661133,0.19175104796886444,18.25,0.0,1.3318061828613281,-0.33867359161376953,0.0,15.0,0.0,1.0578632354736328,0.24247169494628906,0.0,24.75,0.0,1.099705696105957,0.29969215393066406,0.0,22.5,,,,,,,,,,,,,,,,,,,,,,,,,
0.0,-0.00579268392175436,1.8128197193145752,-0.8854886293411255,-0.04989343881607056,0.4860358238220215,0.28373953700065613,-0.008147075772285461,0.1265658736228943,0.17608429491519928,0.0,1.7552375793457031,-0.9709596633911133,0.19175104796886444,22.25,0.0,1.8349885940551758,-1.0896921157836914,0.3835020959377289,21.5,0.0,1.6858577728271484,-0.8207559585571289,0.7670041918754578,21.25,0.0,2.0138025283813477,-0.9756088256835938,0.3835020959377289,17.25,0.0,1.2763738632202148,0.28645992279052734,0.19175104796886444,29.5,0.0,1.3933181762695312,0.3139972686767578,0.19175104796886444,17.5,0.0,0.8922815322875977,0.20563602447509766,0.19175104796886444,14.75,0.0,1.1980533599853516,0.2853870391845703,0.19175104796886444,27.0,0.0,1.238107681274414,0.2868175506591797,0.19175104796886444,31.75,0.0,1.2356042861938477,0.35691261291503906,0.0,19.25,0.0,1.1054277420043945,0.4248619079589844,0.0,25.0,,,,,,,,,,,,,,,,,,,,,,,,,,,,,,
0.0,-0.007155781611800194,1.8942159414291382,-0.7815480828285217,-0.0447927825152874,0.5793697834014893,0.4399454593658447,-0.004051589407026768,0.2329246699810028,0.3002646863460541,0.0,1.875758171081543,-0.9112358093261719,0.19175104796886444,21.0,0.0,1.992344856262207,-1.0242462158203125,0.19175104796886444,17.0,0.0,1.713395118713379,-0.5908012390136719,0.5752531439065933,21.0,0.0,1.7691850662231445,-0.5936622619628906,0.5752531439065933,28.25,0.0,1.8188953399658203,-0.6033182144165039,0.5752531439065933,26.0,0.0,1.3636350631713867,0.030755996704101562,0.3835020959377289,15.75,0.0,1.2305974960327148,0.06008148193359375,0.3835020959377289,14.75,0.0,1.2341737747192383,0.05078315734863281,0.3835020959377289,21.75,0.0,1.62506103515625,-0.9552240371704102,0.0,17.75,0.0,1.1147260665893555,0.07152557373046875,0.0,20.5,0.0,1.1783838272094727,0.30934810638427734,0.0,22.5,0.0,1.2456178665161133,0.34546852111816406,0.0,19.25,,,,,,,,,,,,,,,,,,,,,,,,,
0.0,-0.0073567465879023075,1.9378961324691772,-0.6848970651626587,-0.0371212475001812,0.5748456120491028,0.5638704299926758,0.0035207895562052727,0.20361486077308655,0.38961875438690186,0.0,1.863241195678711,-1.2545585632324219,0.19175104796886444,15.5,0.0,1.8514394760131836,-1.1054277420043945,0.19175104796886444,19.25,0.0,1.8593072891235352,-0.8701086044311523,0.19175104796886444,18.75,0.0,1.774907112121582,-0.6144046783447266,0.7670041918754578,15.25,0.0,1.576066017150879,-0.23496150970458984,0.19175104796886444,13.5,0.0,1.3854503631591797,0.025391578674316406,0.3835020959377289,15.5,0.0,1.2842416763305664,0.10406970977783203,0.3835020959377289,16.0,0.0,1.21307373046875,0.6780624389648438,0.3835020959377289,17.5,0.0,1.8067359924316406,-1.0457038879394531,0.0,22.25,0.0,1.8442869186401367,-1.073598861694336,0.0,23.75,0.0,1.9894838333129883,-1.0120868682861328,0.0,17.5,0.0,1.124739646911621,0.0654458999633789,0.0,21.25,0.0,1.2001991271972656,0.1659393310546875,0.0,21.75,0.0,1.2656450271606445,0.30112266540527344,0.0,19.75,,,,,,,,,,,,,,,
0.0,-0.007441926281899214,1.9503602981567383,-0.6545145511627197,-0.030084310099482536,0.5247761011123657,0.5390177369117737,0.009726323187351227,0.14792154729366302,0.31815969944000244,0.0,1.8857717514038086,-1.1512041091918945,0.19175104796886444,18.5,0.0,1.9261837005615234,-1.2084245681762695,0.19175104796886444,16.75,0.0,1.829981803894043,-0.9748935699462891,0.19175104796886444,15.25,0.0,1.6340017318725586,-0.4996061325073242,0.3835020959377289,13.5,0.0,1.422286033630371,-0.3604888916015625,0.3835020959377289,12.5,0.0,1.4823675155639648,-0.2828836441040039,0.3835020959377289,22.75,0.0,1.4973878860473633,-0.28145313262939453,0.3835020959377289,22.25,0.0,1.8213987350463867,-1.050710678100586,0.0,22.0,0.0,1.850724220275879,-1.0650157928466797,0.0,24.0,0.0,1.9801855087280273,-1.0378360748291016,0.0,18.0,0.0,0.9094476699829102,0.10406970977783203,0.0,14.75,0.0,1.1376142501831055,0.18095970153808594,0.0,20.5,0.0,1.1948347091674805,0.240325927734375,0.0,22.0,0.0,1.28173828125,0.2149343490600586,0.0,19.0,,,,,,,,,,,,,,,
0.0,-0.008175624534487724,1.9822437763214111,-0.6237630844116211,-0.024809155613183975,0.5010865926742554,0.5166740417480469,0.013819193467497826,0.10946386307477951,0.26076221466064453,0.0,1.9676685333251953,-1.076817512512207,0.19175104796886444,18.0,0.0,2.0148754119873047,-1.0614395141601562,0.19175104796886444,16.75,0.0,1.5149116516113281,-0.308990478515625,0.3835020959377289,13.25,0.0,1.4458894729614258,-0.18703937530517578,0.3835020959377289,13.25,0.0,1.4423131942749023,0.584721565246582,0.3835020959377289,18.25,0.0,1.417994499206543,0.5908012390136719,0.3835020959377289,19.25,0.0,0.9123086929321289,0.07832050323486328,0.0,13.0,0.0,1.159071922302246,0.15163421630859375,0.0,19.75,0.0,1.2123584747314453,0.25177001953125,0.0,22.0,,,,,,,,,,,,,,,,,,,,,,,,,,,,,,,,,,,,,,,,
0.0,-0.007457391358911991,2.0410046577453613,-0.43013086915016174,-0.01751769706606865,0.5907419919967651,0.821395218372345,0.01922168768942356,0.23693716526031494,0.5325080156326294,0.0,2.0252466201782227,-0.9416341781616211,0.3835020959377289,12.25,0.0,2.070307731628418,-1.0821819305419922,0.3835020959377289,12.25,0.0,1.4612674713134766,0.01895427703857422,0.5752531439065933,23.0,0.0,1.485586166381836,0.0057220458984375,0.5752531439065933,29.0,0.0,1.500248908996582,0.0007152557373046875,0.5752531439065933,27.25,0.0,1.6003847122192383,0.027179718017578125,0.5752531439065933,15.5,0.0,2.3227930068969727,-0.7213354110717773,0.0,13.0,0.0,1.189112663269043,0.18703937530517578,0.0,18.75,,,,,,,,,,,,,,,,,,,,,,,,,,,,,,,,,,,,,,,,,,,,,
0.0,-0.006250032223761082,2.063992500305176,-0.33747178316116333,-0.010287197306752205,0.5996973514556885,0.8868399262428284,0.02390432357788086,0.26268985867500305,0.5411924123764038,0.0,2.126455307006836,-0.9927749633789062,0.3835020959377289,13.5,0.0,2.0034313201904297,-0.8790493011474609,0.3835020959377289,13.0,0.0,1.8053054809570312,-0.6247758865356445,0.3835020959377289,13.25,0.0,1.5070438385009766,-0.11479854583740234,0.5752531439065933,16.0,0.0,1.5614032745361328,-0.09191036224365234,0.5752531439065933,27.0,0.0,1.564621925354004,-0.08797645568847656,0.5752531439065933,28.5,0.0,1.628279685974121,-0.14913082122802734,0.5752531439065933,20.75,0.0,2.29489803314209,-0.8411407470703125,0.0,14.0,,,,,,,,,,,,,,,,,,,,,,,,,,,,,,,,,,,,,,,,,,,,,
0.0,-0.005927766673266888,2.110069513320923,-0.3080575466156006,-0.006076619029045105,0.61961430311203,0.824596107006073,0.025243820622563362,0.27839359641075134,0.43200361728668213,0.0,1.8957853317260742,-0.9459257125854492,0.5752531439065933,12.5,0.0,1.8535852432250977,-0.6383657455444336,0.5752531439065933,13.75,0.0,1.7681121826171875,-0.31363964080810547,0.5752531439065933,15.25,0.0,1.191258430480957,0.2664327621459961,0.0,19.0,,,,,,,,,,,,,,,,,,,,,,,,,,,,,,,,,,,,,,,,,,,,,,,,,,,,,,,,,,,,,,,,,
0.0,-0.004516221582889557,2.179487705230713,-0.347927987575531,-0.0012373602949082851,0.6959683895111084,0.6517208218574524,0.026663871482014656,0.3721611499786377,0.239010751247406,0.0,2.033114433288574,-0.8647441864013672,0.7670041918754578,17.0,0.0,2.1886825561523438,-0.9123086929321289,0.7670041918754578,18.25,0.0,2.269148826599121,-0.971674919128418,0.7670041918754578,16.5,0.0,1.8972158432006836,-0.5958080291748047,0.7670041918754578,16.5,,,,,,,,,,,,,,,,,,,,,,,,,,,,,,,,,,,,,,,,,,,,,,,,,,,,,,,,,,,,,,,,,
0.0,-0.0034021735191345215,2.2396039962768555,-0.40079382061958313,0.002683229511603713,0.734097421169281,0.46146997809410095,0.027382515370845795,0.3981933891773224,0.04976624250411987,0.0,2.11179256439209,-1.015305519104004,0.5752531439065933,14.5,0.0,2.237677574157715,-1.065373420715332,0.5752531439065933,12.75,0.0,2.0481348037719727,-0.6959438323974609,0.7670041918754578,16.25,0.0,1.9426345825195312,-0.4323720932006836,0.7670041918754578,16.75,,,,,,,,,,,,,,,,,,,,,,,,,,,,,,,,,,,,,,,,,,,,,,,,,,,,,,,,,,,,,,,,,
0.0,-0.00299693807028234,2.315004825592041,-0.3543980121612549,0.005421481095254421,0.7739167809486389,0.4664466083049774,0.0,0.0,0.0,0.0,1.822829246520996,-1.546025276184082,0.3835020959377289,14.5,,,,,,,,,,,,,,,,,,,,,,,,,,,,,,,,,,,,,,,,,,,,,,,,,,,,,,,,,,,,,,,,,,,,,,,,,,,,,,,,
0.0,-0.0019126416882500052,2.469788074493408,-0.2611086964607239,0.0027107405476272106,0.38695839047431946,0.2332233041524887,0.0,0.0,0.0,0.0,2.2197961807250977,-1.0660886764526367,0.0,15.75,,,,,,,,,,,,,,,,,,,,,,,,,,,,,,,,,,,,,,,,,,,,,,,,,,,,,,,,,,,,,,,,,,,,,,,,,,,,,,,,
0.0,-0.0014756664168089628,2.506392478942871,-0.22192104160785675,0.0003745688300114125,0.02001262828707695,0.02390032634139061,0.000284153560642153,0.03799062222242355,0.01662003993988037,0.0,1.9497871398925781,-0.09012222290039062,0.3835020959377289,13.0,,,,,,,,,,,,,,,,,,,,,,,,,,,,,,,,,,,,,,,,,,,,,,,,,,,,,,,,,,,,,,,,,,,,,,,,,,,,,,,,
0.0,-0.0010713853407651186,2.5138559341430664,-0.12492082267999649,0.0013319662539288402,0.06849817931652069,0.1727495938539505,0.001016984460875392,0.111921027302742,0.12655732035636902,0.0,2.073526382446289,0.18274784088134766,0.3835020959377289,16.5,0.0,2.110004425048828,0.15306472778320312,0.3835020959377289,16.75,,,,,,,,,,,,,,,,,,,,,,,,,,,,,,,,,,,,,,,,,,,,,,,,,,,,,,,,,,,,,,,,,,,,,,,,,,,
0.0,-0.0006739146774634719,2.5320985317230225,0.036092765629291534,0.0024466724134981632,0.1393718421459198,0.42363452911376953,0.0019021130865439773,0.2093953788280487,0.3156532645225525,0.0,2.0231008529663086,0.5403757095336914,0.5752531439065933,14.0,0.0,2.0456314086914062,0.5890130996704102,0.5752531439065933,15.25,0.0,1.9594430923461914,0.22709369659423828,0.0,16.25,,,,,,,,,,,,,,,,,,,,,,,,,,,,,,,,,,,,,,,,,,,,,,,,,,,,,,,,,,,,,,,,,,,,,,
0.0,-0.000513507635332644,2.5344905853271484,0.10997355729341507,0.0030241957865655422,0.1792626976966858,0.543253481388092,0.0023830756545066833,0.274498850107193,0.4095730185508728,0.0,2.1092891693115234,0.3383159637451172,0.5752531439065933,21.75,0.0,2.098202705383301,0.3572702407836914,0.5752531439065933,19.5,0.0,1.9501447677612305,0.1995563507080078,0.0,12.75,,,,,,,,,,,,,,,,,,,,,,,,,,,,,,,,,,,,,,,,,,,,,,,,,,,,,,,,,,,,,,,,,,,,,,
0.0,-0.0003832357469946146,2.538660764694214,0.13307693600654602,0.0033707176335155964,0.21364565193653107,0.5865486860275269,0.0026566870510578156,0.32863593101501465,0.4470652639865875,0.0,2.247333526611328,0.15270709991455078,0.5752531439065933,13.0,0.0,2.333521842956543,0.16736984252929688,0.5752531439065933,14.0,,,,,,,,,,,,,,,,,,,,,,,,,,,,,,,,,,,,,,,,,,,,,,,,,,,,,,,,,,,,,,,,,,,,,,,,,,,
0.0,-0.00025472603738307953,2.5429141521453857,0.15677110850811005,0.0037371034268289804,0.25276362895965576,0.6326197981834412,0.0029504902195185423,0.39084139466285706,0.48800772428512573,0.0,2.325296401977539,0.1055002212524414,0.5752531439065933,16.25,0.0,2.338528633117676,0.20384788513183594,0.5752531439065933,19.25,0.0,2.4182796478271484,0.20778179168701172,0.5752531439065933,14.0,,,,,,,,,,,,,,,,,,,,,,,,,,,,,,,,,,,,,,,,,,,,,,,,,,,,,,,,,,,,,,,,,,,,,,
0.0,-0.00025832580286078155,2.5390756130218506,0.16626650094985962,0.00379884522408247,0.2520304024219513,0.647408664226532,0.003011820837855339,0.3942767381668091,0.4996609091758728,0.0,2.2956132888793945,0.30112266540527344,0.3835020959377289,16.5,,,,,,,,,,,,,,,,,,,,,,,,,,,,,,,,,,,,,,,,,,,,,,,,,,,,,,,,,,,,,,,,,,,,,,,,,,,,,,,,
0.0,-0.00025832580286078155,2.5390756130218506,0.16626650094985962,0.00379884522408247,0.2520304024219513,0.647408664226532,0.003011820837855339,0.3942767381668091,0.4996609091758728,0.0,2.2859573364257812,0.2785921096801758,0.0,20.25,,,,,,,,,,,,,,,,,,,,,,,,,,,,,,,,,,,,,,,,,,,,,,,,,,,,,,,,,,,,,,,,,,,,,,,,,,,,,,,,
0.0,-0.00025832580286078155,2.5390756130218506,0.16626650094985962,0.00379884522408247,0.2520304024219513,0.647408664226532,0.003011820837855339,0.3942767381668091,0.4996609091758728,0.0,2.1872520446777344,0.33867359161376953,0.0,22.0,0.0,2.283811569213867,0.28395652770996094,0.0,20.25,,,,,,,,,,,,,,,,,,,,,,,,,,,,,,,,,,,,,,,,,,,,,,,,,,,,,,,,,,,,,,,,,,,,,,,,,,,
0.0,-0.0003011397202499211,2.5322818756103516,0.16123679280281067,0.003705919487401843,0.23013535141944885,0.6341949105262756,0.0029422626830637455,0.36502060294151306,0.48644426465034485,0.0,2.5506019592285156,0.22923946380615234,-0.19175104796886444,12.5,,,,,,,,,,,,,,,,,,,,,,,,,,,,,,,,,,,,,,,,,,,,,,,,,,,,,,,,,,,,,,,,,,,,,,,,,,,,,,,,
0.0,-0.0003410499484743923,2.524590492248535,0.15334846079349518,0.0036238310858607292,0.2094375491142273,0.6172237396240234,0.0028820738662034273,0.3390681743621826,0.47088009119033813,0.0,2.464413642883301,0.14126300811767578,-0.19175104796886444,19.75,0.0,2.876400947570801,-0.6852149963378906,0.0,13.0,,,,,,,,,,,,,,,,,,,,,,,,,,,,,,,,,,,,,,,,,,,,,,,,,,,,,,,,,,,,,,,,,,,,,,,,,,,
0.0,-0.00031343597220256925,2.525585651397705,0.18821735680103302,0.003618968650698662,0.17647354304790497,0.6602903604507446,0.0028625798877328634,0.2794642746448517,0.4965531826019287,0.0,3.097414970397949,-0.5460977554321289,0.19175104796886444,13.75,0.0,2.384662628173828,0.8704662322998047,-0.19175104796886444,17.0,0.0,2.441883087158203,0.9605884552001953,-0.19175104796886444,13.75,0.0,2.8957128524780273,-0.7517337799072266,0.0,12.75,0.0,3.0051469802856445,-0.7978677749633789,0.0,14.25,,,,,,,,,,,,,,,,,,,,,,,,,,,,,,,,,,,,,,,,,,,,,,,,,,,,,,,,,,,,
0.0,-0.00029632492805831134,2.5257797241210938,0.10813932865858078,0.003267074003815651,0.14329072833061218,0.5273404717445374,0.0025169607251882553,0.22356562316417694,0.388599693775177,0.0,2.910733222961426,-0.8382797241210938,-0.19175104796886444,12.25,0.0,2.9543638229370117,-0.8490085601806641,-0.19175104796886444,14.25,0.0,2.411484718322754,0.0718832015991211,-0.19175104796886444,18.75,0.0,2.358555793762207,0.1552104949951172,-0.19175104796886444,12.25,0.0,2.891063690185547,-0.7799863815307617,0.0,13.75,0.0,2.9954910278320312,-0.7867813110351562,0.0,14.25,,,,,,,,,,,,,,,,,,,,,,,,,,,,,,,,,,,,,,,,,,,,,,,,,,,,,,,
0.0,3.6317975173005834e-05,2.562152624130249,0.04303682595491409,0.002938811434432864,0.1514413058757782,0.37307170033454895,0.001985420472919941,0.1683291494846344,0.23048630356788635,0.0,2.948284149169922,-0.7903575897216797,-0.19175104796886444,20.75,0.0,2.95257568359375,-0.7835626602172852,-0.19175104796886444,22.25,0.0,2.991914749145508,-0.8372068405151367,-0.19175104796886444,14.75,0.0,2.4951696395874023,0.05257129669189453,-0.19175104796886444,15.75,0.0,2.940058708190918,-0.7503032684326172,0.0,19.5,0.0,2.9822587966918945,-0.7592439651489258,0.0,20.25,0.0,3.045201301574707,-0.7306337356567383,0.0,14.25,,,,,,,,,,,,,,,,,,,,,,,,,,,,,,,,,,,,,,,,,,,,,,,,,,
0.0,0.00024609564570710063,2.566509962081909,0.10115468502044678,0.002928194822743535,0.1180698573589325,0.4208119809627533,0.0018345448188483715,0.08523420244455338,0.2460702806711197,0.0,3.0237436294555664,-0.5804300308227539,-0.19175104796886444,12.25,0.0,2.408266067504883,0.22745132446289062,-0.19175104796886444,15.5,0.0,2.3860931396484375,0.7581710815429688,-0.19175104796886444,15.75,0.0,2.935051918029785,-0.7499456405639648,0.0,19.75,0.0,2.980470657348633,-0.7631778717041016,0.0,20.25,0.0,3.0570030212402344,-0.7174015045166016,0.0,14.25,0.0,2.4744272232055664,0.8518695831298828,0.0,15.0,,,,,,,,,,,,,,,,,,,,,,,,,,,,,,,,,,,,,,,,,,,,,,,,,,
0.0,0.0003913511463906616,2.551624298095703,0.13789954781532288,0.0028646255377680063,0.06510042399168015,0.42681655287742615,0.0016786286141723394,-0.0019744932651519775,0.22565089166164398,0.0,2.3353099822998047,0.10836124420166016,-0.19175104796886444,14.5,0.0,2.3832321166992188,0.07832050323486328,-0.19175104796886444,18.75,0.0,2.4161338806152344,0.20062923431396484,-0.19175104796886444,15.25,0.0,2.9289722442626953,-0.7460117340087891,0.0,20.0,0.0,2.971172332763672,-0.7760524749755859,0.0,20.0,0.0,3.0416250228881836,-0.7760524749755859,0.0,13.5,0.0,2.678990364074707,0.11873245239257812,0.0,14.0,,,,,,,,,,,,,,,,,,,,,,,,,,,,,,,,,,,,,,,,,,,,,,,,,,
0.0,0.0004839422181248665,2.5493056774139404,0.1765059381723404,0.0026280784513801336,0.012259196490049362,0.43256431818008423,0.0014111230848357081,-0.09396693855524063,0.2048812061548233,0.0,3.005504608154297,-0.7756948471069336,-0.19175104796886444,12.5,0.0,2.464771270751953,0.3504753112792969,-0.19175104796886444,15.5,0.0,2.5870800018310547,0.4144906997680664,-0.19175104796886444,13.25,0.0,2.4994611740112305,0.44274330139160156,-0.19175104796886444,19.25,0.0,2.9271841049194336,-0.7392168045043945,0.0,19.25,0.0,2.9865503311157227,-0.754237174987793,0.0,20.0,0.0,3.050565719604492,-0.7638931274414062,0.0,14.0,0.0,2.4279356002807617,0.37300586700439453,0.0,21.0,0.0,2.4129152297973633,0.6562471389770508,0.0,21.5,0.0,2.4797916412353516,0.8525848388671875,0.0,15.25,,,,,,,,,,,,,,,,,,,,,,,,,,,,,,,,,,,
0.0,0.0005948714097030461,2.518465280532837,0.27597305178642273,0.002586631802842021,-0.06369577348232269,0.5306026935577393,0.0013119126670062542,-0.18055829405784607,0.26035448908805847,0.0,2.3059844970703125,0.5089044570922852,-0.19175104796886444,25.0,0.0,2.351045608520508,0.49102306365966797,-0.19175104796886444,20.5,0.0,2.2695064544677734,0.5228519439697266,-0.19175104796886444,22.0,0.0,2.352118492126465,0.5092620849609375,0.0,25.0,0.0,2.2902488708496094,0.5332231521606445,0.0,20.75,0.0,2.3692846298217773,0.6666183471679688,0.0,23.25,0.0,2.4704933166503906,0.8203983306884766,0.0,15.5,,,,,,,,,,,,,,,,,,,,,,,,,,,,,,,,,,,,,,,,,,,,,,,,,,
0.0,0.0006060910527594388,2.556766986846924,0.16563645005226135,0.0021857833489775658,-0.04692012816667557,0.30023056268692017,0.0009773646015673876,-0.17890378832817078,0.05409663915634155,0.0,2.98154354095459,-0.5117654800415039,-0.19175104796886444,17.5,0.0,3.017306327819824,-0.5310773849487305,-0.3835020959377289,19.25,0.0,3.090977668762207,-0.5182027816772461,-0.3835020959377289,13.0,0.0,2.3735761642456055,0.3408193588256836,0.19175104796886444,12.5,0.0,3.049135208129883,-0.7138252258300781,0.0,14.0,0.0,2.693295478820801,0.03361701965332031,0.0,14.75,0.0,2.3506879806518555,0.5321502685546875,0.0,24.25,0.0,2.271294593811035,0.5536079406738281,0.0,20.5,0.0,2.3925304412841797,0.5958080291748047,0.0,23.0,0.0,2.52377986907959,0.6412267684936523,0.0,14.75,,,,,,,,,,,,,,,,,,,,,,,,,,,,,,,,,,,
0.0,0.0006696589989587665,2.535362958908081,0.33891236782073975,0.002215913962572813,-0.06093909591436386,0.5252357721328735,0.0009668882703408599,-0.1434403955936432,0.22813363373279572,0.0,2.8209686279296875,-1.1394023895263672,-0.19175104796886444,13.75,0.0,2.8781890869140625,-1.0832548141479492,-0.19175104796886444,15.75,0.0,2.2569894790649414,0.5639791488647461,0.19175104796886444,26.0,0.0,2.2737979888916016,0.6412267684936523,0.19175104796886444,29.0,0.0,2.298116683959961,0.7445812225341797,0.19175104796886444,25.0,0.0,2.4061203002929688,0.8844137191772461,0.19175104796886444,14.0,0.0,2.937912940979004,-0.7714033126831055,0.0,20.0,0.0,2.970457077026367,-0.7606744766235352,0.0,20.5,0.0,3.0384063720703125,-0.756382942199707,0.0,13.5,0.0,2.2580623626708984,0.5564689636230469,0.0,25.0,0.0,2.2999048233032227,0.5872249603271484,0.0,27.5,,,,,,,,,,,,,,,,,,,,,,,,,,,,,,
0.0,0.0006155555602163076,2.5295019149780273,0.491084486246109,0.001987936208024621,-0.07872280478477478,0.6980009078979492,0.0008004734991118312,-0.14485840499401093,0.3450610637664795,0.0,2.9976367950439453,-0.5797147750854492,-0.19175104796886444,16.5,0.0,3.0001401901245117,-0.5990266799926758,-0.19175104796886444,18.25,0.0,2.179741859436035,0.857234001159668,0.19175104796886444,17.5,0.0,2.149343490600586,1.122593879699707,0.19175104796886444,22.75,0.0,2.14540958404541,1.2073516845703125,0.19175104796886444,22.0,0.0,2.218008041381836,1.282811164855957,0.19175104796886444,12.25,0.0,3.005504608154297,-0.8257627487182617,0.0,15.5,0.0,2.2516250610351562,0.5958080291748047,0.0,25.25,0.0,2.277374267578125,0.6780624389648438,0.0,28.0,0.0,2.3059844970703125,0.7717609405517578,0.0,24.75,,,,,,,,,,,,,,,,,,,,,,,,,,,,,,,,,,,
0.0,0.0006892991368658841,2.509770154953003,0.630081057548523,0.0019364987965673208,-0.10294099897146225,0.8383203744888306,0.0007373898988589644,-0.14446333050727844,0.43082690238952637,0.0,2.444744110107422,0.8261203765869141,0.19175104796886444,16.75,0.0,2.2945404052734375,0.9756088256835938,0.19175104796886444,22.5,0.0,2.306342124938965,0.9824037551879883,0.19175104796886444,23.75,0.0,2.942204475402832,-0.7624626159667969,0.0,19.5,0.0,2.9611587524414062,-0.7621049880981445,0.0,19.25,0.0,3.049135208129883,-0.7163286209106445,0.0,12.75,,,,,,,,,,,,,,,,,,,,,,,,,,,,,,,,,,,,,,,,,,,,,,,,,,,,,,,
0.0,0.0007102802046574652,2.4769062995910645,0.7613170742988586,0.0018316102214157581,-0.14021249115467072,0.9525669813156128,0.0006516013527289033,-0.1566547304391861,0.48895856738090515,0.0,2.9200315475463867,-0.7234811782836914,-0.19175104796886444,19.5,0.0,2.9300451278686523,-0.7134675979614258,-0.19175104796886444,18.75,0.0,2.3277997970581055,0.8547306060791016,0.19175104796886444,20.75,0.0,2.5191307067871094,0.8068084716796875,0.19175104796886444,12.75,0.0,2.1740198135375977,0.835418701171875,0.19175104796886444,17.5,0.0,2.2530555725097656,0.8747577667236328,0.19175104796886444,21.25,0.0,2.9886960983276367,-0.9230375289916992,0.0,12.75,0.0,2.9278993606567383,-0.7638931274414062,0.0,19.75,0.0,2.9429197311401367,-0.7842779159545898,0.0,20.0,0.0,2.518773078918457,0.6372928619384766,0.0,16.25,0.0,2.283453941345215,0.8161067962646484,0.0,26.75,,,,,,,,,,,,,,,,,,,,,,,,,,,,,,
0.0,0.0007731025107204914,2.447295665740967,0.76045823097229,0.0017798814224079251,-0.18800726532936096,0.8357120156288147,0.0005917056114412844,-0.20917505025863647,0.3449201285839081,0.0,2.9135942459106445,-0.6966590881347656,-0.19175104796886444,17.5,0.0,2.907872200012207,-0.7413625717163086,-0.19175104796886444,16.25,0.0,2.2673606872558594,0.48530101776123047,-0.19175104796886444,21.0,0.0,2.272367477416992,0.48279762268066406,-0.19175104796886444,22.75,0.0,2.3320913314819336,0.5968809127807617,-0.19175104796886444,15.75,0.0,3.0012130737304688,-0.8972883224487305,0.0,13.5,0.0,2.930760383605957,-0.7674694061279297,0.0,20.75,0.0,2.9529333114624023,-0.7492303848266602,0.0,20.25,0.0,2.2641420364379883,0.6358623504638672,0.0,31.5,0.0,2.5151968002319336,0.7005929946899414,0.0,15.5,0.0,2.295255661010742,0.7367134094238281,0.0,26.75,,,,,,,,,,,,,,,,,,,,,,,,,,,,,,
0.0,0.0008246219367720187,2.4442200660705566,0.6792024970054626,0.0017431925516575575,-0.17817626893520355,0.616308867931366,0.0005450286553241313,-0.19238053262233734,0.14381259679794312,0.0,2.3746490478515625,0.06401538848876953,-0.19175104796886444,18.5,0.0,2.3142099380493164,0.16880035400390625,-0.19175104796886444,23.5,0.0,2.319216728210449,0.1373291015625,-0.19175104796886444,25.75,0.0,2.945065498352051,-0.7688999176025391,0.0,19.75,0.0,3.040194511413574,-0.732421875,0.0,12.5,0.0,2.2444725036621094,0.5772113800048828,0.0,30.0,0.0,2.260923385620117,0.630497932434082,0.0,31.75,0.0,2.275228500366211,0.7767677307128906,0.0,27.0,0.0,2.4976730346679688,0.7731914520263672,0.0,15.25,,,,,,,,,,,,,,,,,,,,,,,,,,,,,,,,,,,,,,,,
0.0,0.0007920620264485478,2.437972068786621,0.6298160552978516,0.001604112214408815,-0.18225312232971191,0.4599558115005493,0.0004507332050707191,-0.19466453790664673,0.0071549564599990845,0.0,2.849578857421875,-0.7921457290649414,-0.19175104796886444,16.5,0.0,2.8188228607177734,-0.5807876586914062,-0.19175104796886444,20.0,0.0,2.6961565017700195,-0.15556812286376953,-0.19175104796886444,20.75,0.0,2.2873878479003906,0.4513263702392578,-0.19175104796886444,25.75,0.0,2.3245811462402344,0.4960298538208008,-0.19175104796886444,29.0,0.0,2.410769462585449,0.4756450653076172,-0.19175104796886444,26.0,0.0,2.8939247131347656,-0.731348991394043,0.0,21.5,0.0,2.938985824584961,-0.767827033996582,0.0,19.75,0.0,3.0362606048583984,-0.731348991394043,0.0,12.25,0.0,2.736210823059082,-0.14770030975341797,0.0,18.75,0.0,2.2466182708740234,0.5604028701782227,0.0,30.0,0.0,2.2623538970947266,0.6308555603027344,0.0,31.5,0.0,2.2891759872436523,0.7674694061279297,0.0,27.0,,,,,,,,,,,,,,,,,,,,
0.0,0.0006842681905254722,2.400716781616211,0.6882072687149048,0.0013576598139479756,-0.2582772374153137,0.46536898612976074,0.0003096875734627247,-0.27585363388061523,-0.002879783511161804,0.0,2.781987190246582,0.0010728836059570312,-0.3835020959377289,12.25,0.0,2.8803348541259766,0.03039836883544922,-0.3835020959377289,12.0,0.0,2.2641420364379883,1.0010004043579102,-0.19175104796886444,14.5,0.0,2.0749568939208984,0.9977817535400391,-0.19175104796886444,15.0,0.0,2.1218061447143555,1.0650157928466797,-0.19175104796886444,17.5,0.0,2.891421318054199,-0.7191896438598633,0.0,21.0,0.0,2.933979034423828,-0.7846355438232422,0.0,19.75,0.0,2.7201175689697266,-0.2435445785522461,0.0,18.5,0.0,2.2537708282470703,0.5396604537963867,0.0,30.0,0.0,2.269148826599121,0.5997419357299805,0.0,31.75,0.0,2.283811569213867,0.777125358581543,0.0,27.0,,,,,,,,,,,,,,,,,,,,,,,,,,,,,,
0.0,0.0006761857075616717,2.336073160171509,0.7805655598640442,0.0012282220413908362,-0.35759803652763367,0.5229792594909668,0.0002325692039448768,-0.3559724986553192,0.03134746849536896,0.0,2.90071964263916,-0.687718391418457,0.19175104796886444,13.25,0.0,2.602815628051758,-0.4953145980834961,0.19175104796886444,13.75,0.0,2.7626752853393555,-0.4363059997558594,0.19175104796886444,19.0,0.0,2.8334856033325195,-0.40590763092041016,0.19175104796886444,18.0,0.0,2.158999443054199,0.7878541946411133,-0.3835020959377289,17.75,0.0,2.135753631591797,1.0335445404052734,-0.3835020959377289,20.75,0.0,2.2197961807250977,1.0360479354858398,-0.19175104796886444,17.5,0.0,2.8821229934692383,-0.6884336471557617,0.0,20.75,0.0,2.9418468475341797,-0.7120370864868164,0.0,19.0,0.0,2.7387142181396484,-0.30934810638427734,0.0,19.5,0.0,2.2516250610351562,0.5289316177368164,0.0,29.25,0.0,2.274155616760254,0.5561113357543945,0.0,30.75,0.0,2.3446083068847656,0.5779266357421875,0.0,25.5,,,,,,,,,,,,,,,,,,,,
0.0,0.0006928251823410392,2.3330631256103516,0.7130721807479858,0.0011738510802388191,-0.3256608247756958,0.35160693526268005,0.0001933001767611131,-0.29226356744766235,-0.09900978207588196,0.0,2.921462059020996,-0.7009506225585938,-0.19175104796886444,18.0,0.0,2.9479265213012695,-0.6880760192871094,-0.19175104796886444,18.5,0.0,2.254486083984375,0.27430057525634766,-0.19175104796886444,24.25,0.0,2.2916793823242188,0.23746490478515625,-0.19175104796886444,24.25,0.0,2.3943185806274414,0.2617835998535156,-0.19175104796886444,17.25,0.0,2.8553009033203125,-0.7456541061401367,0.0,20.0,0.0,2.9114484786987305,-0.8189678192138672,0.0,18.0,0.0,2.7326345443725586,-0.2835988998413086,0.0,19.5,0.0,2.2580623626708984,0.5182027816772461,0.0,29.25,0.0,2.28273868560791,0.5357265472412109,0.0,31.0,0.0,2.353191375732422,0.5443096160888672,0.0,25.75,,,,,,,,,,,,,,,,,,,,,,,,,,,,,,
0.0,0.0006439359276555479,2.300018072128296,0.6954020261764526,0.001039503258652985,-0.34560710191726685,0.263507604598999,0.00011855401680804789,-0.2845926284790039,-0.1596483439207077,0.0,2.83205509185791,-0.7731914520263672,-0.3835020959377289,12.5,0.0,2.194046974182129,0.3336668014526367,-0.3835020959377289,16.5,0.0,2.234816551208496,0.42450428009033203,-0.19175104796886444,28.0,0.0,2.2215843200683594,0.5861520767211914,-0.19175104796886444,28.25,0.0,2.2019147872924805,0.8625984191894531,-0.3835020959377289,21.0,0.0,2.8553009033203125,-0.7649660110473633,0.0,19.75,0.0,2.9082298278808594,-0.8246898651123047,0.0,18.0,0.0,2.335667610168457,0.6008148193359375,0.0,25.0,,,,,,,,,,,,,,,,,,,,,,,,,,,,,,,,,,,,,,,,,,,,,
0.0,0.0005976094398647547,2.2750208377838135,0.6707784533500671,0.0009137202287092805,-0.33600232005119324,0.1795470416545868,5.218751903157681e-05,-0.235468327999115,-0.2048337310552597,0.0,2.9726028442382812,-0.7520914077758789,0.19175104796886444,12.75,0.0,2.1497011184692383,0.40662288665771484,-0.19175104796886444,17.5,0.0,2.177596092224121,0.47206878662109375,-0.19175104796886444,27.25,0.0,2.187967300415039,0.5804300308227539,-0.19175104796886444,25.25,0.0,2.2755861282348633,0.6537437438964844,-0.19175104796886444,15.75,0.0,2.9300451278686523,-0.7642507553100586,0.0,17.75,,,,,,,,,,,,,,,,,,,,,,,,,,,,,,,,,,,,,,,,,,,,,,,,,,,,,,,
0.0,0.0005558752454817295,2.2668838500976562,0.6082383990287781,0.0008002718677744269,-0.29717493057250977,0.04579825699329376,-6.754260539310053e-06,-0.1655481904745102,-0.2850225865840912,0.0,2.984762191772461,-0.6644725799560547,-0.19175104796886444,13.25,0.0,2.1636486053466797,0.27573108673095703,-0.19175104796886444,14.25,0.0,2.198338508605957,0.3504753112792969,-0.19175104796886444,23.0,0.0,2.224445343017578,0.4659891128540039,-0.19175104796886444,21.25,0.0,2.327084541320801,0.5085468292236328,-0.19175104796886444,13.0,0.0,2.946138381958008,-0.6998777389526367,0.0,16.75,0.0,2.7261972427368164,-0.4380941390991211,0.0,18.75,0.0,2.863168716430664,-0.6390810012817383,0.0,17.5,0.0,2.7097463607788086,-0.43523311614990234,0.0,18.25,0.0,2.1833181381225586,0.36334991455078125,0.0,13.75,0.0,2.2333860397338867,0.39589405059814453,0.0,30.0,,,,,,,,,,,,,,,,,,,,,,,,,,,,,,
0.0,0.0005367511766962707,2.2419683933258057,0.578210711479187,0.0007061958312988281,-0.28732529282569885,-0.029588330537080765,-5.273022543406114e-05,-0.1287572979927063,-0.3170705735683441,0.0,2.113938331604004,0.4055500030517578,-0.19175104796886444,16.5,0.0,2.1364688873291016,0.43952465057373047,-0.19175104796886444,21.75,0.0,2.1833181381225586,0.4938840866088867,-0.19175104796886444,17.5,0.0,2.9164552688598633,-0.7452964782714844,0.0,16.75,0.0,2.7480125427246094,-0.4538297653198242,0.0,18.25,0.0,2.870321273803711,-0.6515979766845703,0.0,18.5,,,,,,,,,,,,,,,,,,,,,,,,,,,,,,,,,,,,,,,,,,,,,,,,,,,,,,,
0.0,0.0005119888810440898,2.199612855911255,0.6863628625869751,0.0005999887944199145,-0.2894764840602875,0.12410321831703186,-9.35880234465003e-05,-0.07462146878242493,-0.15833768248558044,0.0,2.9071569442749023,-0.6905794143676758,-0.19175104796886444,14.5,0.0,2.951502799987793,-0.70953369140625,-0.19175104796886444,14.25,0.0,1.969456672668457,1.1497735977172852,0.19175104796886444,17.0,0.0,1.9383430480957031,1.2102127075195312,0.19175104796886444,17.0,0.0,2.8520822525024414,-0.6744861602783203,0.0,18.5,0.0,2.8935670852661133,-0.7524490356445312,0.0,15.25,0.0,2.727627754211426,-0.5968809127807617,0.0,18.75,,,,,,,,,,,,,,,,,,,,,,,,,,,,,,,,,,,,,,,,,,,,,,,,,,
0.0,0.00040061859181150794,2.1792309284210205,0.8012052774429321,0.000418348383391276,-0.22174911201000214,0.2975219488143921,-0.0001679693814367056,0.06857380270957947,0.021419987082481384,0.0,2.848505973815918,-0.8876323699951172,-0.19175104796886444,12.25,0.0,2.241969108581543,-0.11873245239257812,0.19175104796886444,15.25,0.0,2.05385684967041,0.6262063980102539,0.19175104796886444,13.25,0.0,1.976609230041504,1.1218786239624023,0.19175104796886444,21.75,0.0,1.9583702087402344,1.2373924255371094,0.19175104796886444,23.0,0.0,1.9612312316894531,1.3360977172851562,0.19175104796886444,16.0,0.0,2.7637481689453125,-0.6394386291503906,0.0,19.25,0.0,2.8499364852905273,-0.6895065307617188,0.0,19.5,0.0,2.900362014770508,-0.7370710372924805,0.0,16.25,,,,,,,,,,,,,,,,,,,,,,,,,,,,,,,,,,,,,,,,
0.0,0.0003492924151942134,2.207530975341797,0.7527357339859009,0.0003123045898973942,-0.10344740003347397,0.19743703305721283,-0.0002125021565007046,0.20161809027194977,-0.03708866611123085,0.0,2.8334856033325195,-0.9391307830810547,-0.19175104796886444,14.0,0.0,2.8263330459594727,-0.75531005859375,-0.19175104796886444,17.0,0.0,2.7905702590942383,-0.61798095703125,-0.19175104796886444,14.25,0.0,2.1779537200927734,0.30934810638427734,0.19175104796886444,12.5,0.0,2.2394657135009766,0.32901763916015625,0.19175104796886444,23.75,0.0,2.2541284561157227,0.48851966857910156,0.19175104796886444,24.25,0.0,2.2591352462768555,0.8211135864257812,0.19175104796886444,18.25,,,,,,,,,,,,,,,,,,,,,,,,,,,,,,,,,,,,,,,,,,,,,,,,,,
0.0,0.000314137403620407,2.2190847396850586,0.7648195624351501,0.00022618932416662574,-0.03536146134138107,0.18972571194171906,-0.00024338410003110766,0.2635021507740021,-0.030649760738015175,0.0,2.797722816467285,-0.7460117340087891,-0.19175104796886444,17.0,0.0,2.767324447631836,-0.6158351898193359,-0.19175104796886444,14.75,0.0,2.2530555725097656,0.5747079849243164,0.19175104796886444,15.25,0.0,2.2448301315307617,0.7899999618530273,0.19175104796886444,19.25,0.0,2.3145675659179688,0.7864236831665039,0.19175104796886444,15.75,0.0,2.8696060180664062,-0.7592439651489258,0.0,19.0,,,,,,,,,,,,,,,,,,,,,,,,,,,,,,,,,,,,,,,,,,,,,,,,,,,,,,,
0.0,0.0002681694459170103,2.246830701828003,0.7121025919914246,0.00013409729581326246,0.06087840348482132,0.08200458437204361,-0.00027817508089356124,0.34446007013320923,-0.10302474349737167,0.0,2.15756893157959,0.4431009292602539,0.19175104796886444,13.25,0.0,2.2104978561401367,0.5053281784057617,0.19175104796886444,23.0,0.0,2.237677574157715,0.5514621734619141,0.19175104796886444,22.75,0.0,2.3392438888549805,0.5407333374023438,0.19175104796886444,16.0,,,,,,,,,,,,,,,,,,,,,,,,,,,,,,,,,,,,,,,,,,,,,,,,,,,,,,,,,,,,,,,,,
0.0,0.00023240671725943685,2.276106119155884,0.697299599647522,-4.864766378886998e-05,0.051211584359407425,-0.030022893100976944,-2.3889559088274837e-05,0.06441694498062134,-0.015535270795226097,0.0,2.7322769165039062,-0.6923675537109375,0.19175104796886444,14.5,0.0,2.8066635131835938,-0.8007287979125977,0.19175104796886444,16.5,0.0,2.8603076934814453,-0.8279085159301758,0.19175104796886444,12.75,0.0,2.2437572479248047,0.20635128021240234,0.19175104796886444,17.5,0.0,2.319216728210449,0.6254911422729492,0.19175104796886444,18.75,0.0,2.269148826599121,0.9952783584594727,0.19175104796886444,20.0,,,,,,,,,,,,,,,,,,,,,,,,,,,,,,,,,,,,,,,,,,,,,,,,,,,,,,,
0.0,0.00020309301908127964,2.292541742324829,0.6283888816833496,-8.028026786632836e-05,0.10095394402742386,-0.13374961912631989,-4.133599577471614e-05,0.12475872039794922,-0.09070760011672974,0.0,2.2437572479248047,0.14984607696533203,0.19175104796886444,20.0,0.0,2.1532773971557617,0.4420280456542969,0.19175104796886444,16.0,0.0,2.1865367889404297,0.3554821014404297,0.19175104796886444,23.5,0.0,2.15756893157959,0.4584789276123047,0.0,12.75,0.0,2.2072792053222656,0.4953145980834961,0.0,28.0,,,,,,,,,,,,,,,,,,,,,,,,,,,,,,,,,,,,,,,,,,,,,,,,,,,,,,,,,,,,
0.0,0.00017980608390644193,2.296323299407959,0.5958978533744812,-0.00010577809007372707,0.1262974590063095,-0.181890606880188,-5.5122414778452367e-05,0.16150370240211487,-0.12435917556285858,0.0,2.169013023376465,0.4520416259765625,0.19175104796886444,17.0,0.0,2.202272415161133,0.4259347915649414,0.19175104796886444,25.0,0.0,2.205491065979004,0.3669261932373047,0.19175104796886444,22.75,0.0,2.1611452102661133,0.45490264892578125,0.0,15.25,,,,,,,,,,,,,,,,,,,,,,,,,,,,,,,,,,,,,,,,,,,,,,,,,,,,,,,,,,,,,,,,,
0.0,0.00017980608390644193,2.296323299407959,0.5958978533744812,-0.00010577809007372707,0.1262974590063095,-0.181890606880188,-5.5122414778452367e-05,0.16150370240211487,-0.12435917556285858,0.0,2.834200859069824,-0.91552734375,0.19175104796886444,15.5,0.0,2.882838249206543,-0.8887052536010742,0.19175104796886444,13.25,0.0,2.8367042541503906,-0.7349252700805664,0.0,20.5,0.0,2.8656721115112305,-0.8182525634765625,0.0,17.25,0.0,2.7658939361572266,-0.6254911422729492,0.0,18.75,,,,,,,,,,,,,,,,,,,,,,,,,,,,,,,,,,,,,,,,,,,,,,,,,,,,,,,,,,,,
0.0,0.00016163459804374725,2.301837205886841,0.5577262043952942,-0.00012588068784680218,0.1517500877380371,-0.23992320895195007,-6.632271106354892e-05,0.19538205862045288,-0.1668543815612793,0.0,2.190113067626953,0.33223628997802734,0.19175104796886444,16.0,0.0,2.2269487380981445,0.3197193145751953,0.19175104796886444,25.0,0.0,2.228379249572754,0.2943277359008789,0.19175104796886444,23.25,0.0,2.251267433166504,0.3694295883178711,0.0,24.5,0.0,2.246260643005371,0.9173154830932617,0.0,18.5,,,,,,,,,,,,,,,,,,,,,,,,,,,,,,,,,,,,,,,,,,,,,,,,,,,,,,,,,,,,
0.0,0.0001451330608688295,2.3045105934143066,0.5486171245574951,-0.00014342551003210247,0.16494423151016235,-0.2536506652832031,-7.533863390563056e-05,0.21483996510505676,-0.17603304982185364,0.0,2.890348434448242,-0.9326934814453125,0.3835020959377289,14.5,0.0,2.8531551361083984,-0.7381439208984375,-0.19175104796886444,15.75,0.0,2.796649932861328,-0.5582571029663086,0.3835020959377289,13.0,0.0,2.248406410217285,0.39017200469970703,0.19175104796886444,18.5,0.0,2.2602081298828125,0.4878044128417969,0.19175104796886444,18.75,0.0,2.3435354232788086,0.6422996520996094,0.19175104796886444,12.25,0.0,2.738356590270996,-0.7170438766479492,0.0,16.25,0.0,2.2516250610351562,0.36406517028808594,0.0,25.0,0.0,2.2530555725097656,0.9133815765380859,0.0,18.75,,,,,,,,,,,,,,,,,,,,,,,,,,,,,,,,,,,,,,,,
0.0,0.00013113985187374055,2.308379888534546,0.5431190729141235,-0.00015798227104824036,0.1761707067489624,-0.26226291060447693,-8.265515498351306e-05,0.22979725897312164,-0.18187814950942993,0.0,2.433657646179199,0.35583972930908203,0.19175104796886444,15.0,0.0,2.2344589233398438,0.5807876586914062,0.19175104796886444,16.0,0.0,2.295970916748047,0.5589723587036133,0.19175104796886444,18.75,0.0,2.726912498474121,-0.6319284439086914,0.0,17.0,0.0,2.2820234298706055,0.3712177276611328,0.0,25.75,0.0,2.373933792114258,0.4813671112060547,0.0,21.0,,,,,,,,,,,,,,,,,,,,,,,,,,,,,,,,,,,,,,,,,,,,,,,,,,,,,,,
0.0,0.00012031232472509146,2.313983201980591,0.5224665999412537,-0.00016947128460742533,0.19096851348876953,-0.29458120465278625,-8.88773865881376e-05,0.24677425622940063,-0.20642250776290894,0.0,2.8488636016845703,-0.7596015930175781,0.3835020959377289,12.75,0.0,2.3120641708374023,0.34117698669433594,0.19175104796886444,22.5,0.0,2.376079559326172,0.25856494903564453,0.19175104796886444,15.75,0.0,2.287745475769043,0.39267539978027344,0.19175104796886444,20.0,0.0,2.709031105041504,-0.5768537521362305,0.0,17.5,0.0,2.283453941345215,0.37980079650878906,0.0,26.5,0.0,2.3860931396484375,0.39696693420410156,0.0,21.25,,,,,,,,,,,,,,,,,,,,,,,,,,,,,,,,,,,,,,,,,,,,,,,,,,
0.0,0.00011102942517027259,2.3212249279022217,0.5010181069374084,-0.00017900382226798683,0.20545627176761627,-0.3286386728286743,-9.402540308656171e-05,0.2610459625720978,-0.23292595148086548,0.0,2.864241600036621,-0.8296966552734375,0.3835020959377289,15.25,0.0,2.8924942016601562,-0.7864236831665039,0.3835020959377289,13.75,0.0,2.3202896118164062,0.30863285064697266,0.19175104796886444,15.0,0.0,2.3632049560546875,0.27573108673095703,0.19175104796886444,19.75,0.0,2.4057626724243164,0.286102294921875,0.19175104796886444,15.5,0.0,2.6628971099853516,-0.38230419158935547,0.0,14.75,0.0,2.2906064987182617,0.3751516342163086,0.0,27.25,,,,,,,,,,,,,,,,,,,,,,,,,,,,,,,,,,,,,,,,,,,,,,,,,,
0.0,0.00010750296496553347,2.3204896450042725,0.5111040472984314,-0.00018250594439450651,0.20386284589767456,-0.31306254863739014,-9.547660738462582e-05,0.2606126666069031,-0.2207370400428772,0.0,2.295970916748047,0.8783340454101562,0.19175104796886444,13.25,0.0,2.672910690307617,-0.2682209014892578,0.0,14.5,0.0,2.1729469299316406,0.4506111145019531,0.0,12.5,0.0,2.2498369216918945,0.4144906997680664,0.0,26.0,0.0,2.3088455200195312,0.3840923309326172,0.0,26.75,,,,,,,,,,,,,,,,,,,,,,,,,,,,,,,,,,,,,,,,,,,,,,,,,,,,,,,,,,,,
0.0,0.00010095100878970698,2.3275232315063477,0.5049347281455994,-0.0001897289912449196,0.22019511461257935,-0.3237622082233429,-9.911392407957464e-05,0.2808941900730133,-0.22869856655597687,0.0,2.868175506591797,-0.8085966110229492,0.19175104796886444,17.5,0.0,2.940058708190918,-0.7442235946655273,0.19175104796886444,16.0,0.0,2.3921728134155273,0.37550926208496094,0.3835020959377289,17.0,0.0,2.456188201904297,0.4985332489013672,0.3835020959377289,16.0,0.0,2.685427665710449,-0.286102294921875,0.0,15.5,0.0,2.295970916748047,0.4341602325439453,0.0,22.75,,,,,,,,,,,,,,,,,,,,,,,,,,,,,,,,,,,,,,,,,,,,,,,,,,,,,,,
0.0,9.803855209611356e-05,2.3438615798950195,0.48190444707870483,-0.00019079887715633959,0.23499341309070587,-0.3618592917919159,-9.942162432707846e-05,0.28439322113990784,-0.2604120969772339,0.0,2.990126609802246,-0.7034540176391602,0.19175104796886444,16.25,0.0,2.9418468475341797,-0.5460977554321289,0.19175104796886444,14.5,0.0,2.693653106689453,-0.3057718276977539,0.0,16.25,0.0,2.294182777404785,0.4259347915649414,0.0,23.0,,,,,,,,,,,,,,,,,,,,,,,,,,,,,,,,,,,,,,,,,,,,,,,,,,,,,,,,,,,,,,,,,
0.0,9.803855209611356e-05,2.3438615798950195,0.48190444707870483,-0.00019079887715633959,0.23499341309070587,-0.3618592917919159,-9.942162432707846e-05,0.28439322113990784,-0.2604120969772339,0.0,2.6636123657226562,-0.13911724090576172,0.0,16.25,0.0,2.4318695068359375,0.31685829162597656,0.0,23.5,,,,,,,,,,,,,,,,,,,,,,,,,,,,,,,,,,,,,,,,,,,,,,,,,,,,,,,,,,,,,,,,,,,,,,,,,,,
0.0,9.803855209611356e-05,2.3438615798950195,0.48190444707870483,-0.00019079887715633959,0.23499341309070587,-0.3618592917919159,-9.942162432707846e-05,0.28439322113990784,-0.2604120969772339,0.0,2.6797056198120117,-0.25963783264160156,0.0,18.25,,,,,,,,,,,,,,,,,,,,,,,,,,,,,,,,,,,,,,,,,,,,,,,,,,,,,,,,,,,,,,,,,,,,,,,,,,,,,,,,
0.0,9.568729001330212e-05,2.3561630249023438,0.4602677524089813,-0.0001918776979437098,0.24706126749515533,-0.39716511964797974,-9.993791172746569e-05,0.2880423367023468,-0.2894022762775421,0.0,2.8771162033081055,-0.7560253143310547,0.3835020959377289,15.5,0.0,2.764463424682617,-0.48351287841796875,0.19175104796886444,13.25,0.0,3.013014793395996,-0.641942024230957,0.3835020959377289,17.25,0.0,2.7011632919311523,-0.30291080474853516,0.0,18.0,0.0,2.328157424926758,0.3261566162109375,0.0,17.75,0.0,2.4150609970092773,0.2728700637817383,0.0,22.25,,,,,,,,,,,,,,,,,,,,,,,,,,,,,,,,,,,,,,,,,,,,,,,,,,,,,,,
0.0,9.313396731158718e-05,2.362870454788208,0.4542485475540161,-0.00019355308904778212,0.2522297501564026,-0.40756911039352417,-0.00010055000893771648,0.28835931420326233,-0.2984468936920166,0.0,2.8302669525146484,-0.5933046340942383,0.19175104796886444,17.25,0.0,2.707958221435547,0.22029876708984375,0.19175104796886444,16.5,0.0,2.8438568115234375,-0.7131099700927734,0.0,17.5,0.0,2.9522180557250977,-0.789642333984375,0.0,14.5,,,,,,,,,,,,,,,,,,,,,,,,,,,,,,,,,,,,,,,,,,,,,,,,,,,,,,,,,,,,,,,,,
0.0,8.930594776757061e-05,2.3913872241973877,0.42036914825439453,-0.00019124499522149563,0.25811344385147095,-0.4622727334499359,-9.831498027779162e-05,0.25918665528297424,-0.34536588191986084,0.0,3.0215978622436523,-0.492095947265625,-0.19175104796886444,13.0,0.0,3.189682960510254,-0.5292892456054688,-0.19175104796886444,12.25,,,,,,,,,,,,,,,,,,,,,,,,,,,,,,,,,,,,,,,,,,,,,,,,,,,,,,,,,,,,,,,,,,,,,,,,,,,
0.0,8.770045678829774e-05,2.39172101020813,0.42516931891441345,-0.00019152526510879397,0.24948586523532867,-0.453453004360199,-9.807682363316417e-05,0.2438870668411255,-0.33839043974876404,0.0,2.54058837890625,0.5890130996704102,-0.19175104796886444,17.75,0.0,2.934694290161133,-0.9216070175170898,0.0,17.5,,,,,,,,,,,,,,,,,,,,,,,,,,,,,,,,,,,,,,,,,,,,,,,,,,,,,,,,,,,,,,,,,,,,,,,,,,,
0.0,8.770045678829774e-05,2.39172101020813,0.42516931891441345,-0.00019152526510879397,0.24948586523532867,-0.453453004360199,-9.807682363316417e-05,0.2438870668411255,-0.33839043974876404,0.0,2.9207468032836914,-0.9473562240600586,0.0,18.0,,,,,,,,,,,,,,,,,,,,,,,,,,,,,,,,,,,,,,,,,,,,,,,,,,,,,,,,,,,,,,,,,,,,,,,,,,,,,,,,
0.0,8.770045678829774e-05,2.39172101020813,0.42516931891441345,-0.00019152526510879397,0.24948586523532867,-0.453453004360199,-9.807682363316417e-05,0.2438870668411255,-0.33839043974876404,0.0,3.0230283737182617,-0.9963512420654297,0.0,13.0,0.0,2.947568893432617,-0.8765459060668945,0.0,17.5,,,,,,,,,,,,,,,,,,,,,,,,,,,,,,,,,,,,,,,,,,,,,,,,,,,,,,,,,,,,,,,,,,,,,,,,,,,
0.0,8.770045678829774e-05,2.39172101020813,0.42516931891441345,-0.00019152526510879397,0.24948586523532867,-0.453453004360199,-9.807682363316417e-05,0.2438870668411255,-0.33839043974876404,0.0,3.0308961868286133,-0.8018016815185547,-0.19175104796886444,13.75,0.0,3.0562877655029297,-0.9777545928955078,0.0,12.25,0.0,2.962946891784668,-0.8121728897094727,0.0,16.0,,,,,,,,,,,,,,,,,,,,,,,,,,,,,,,,,,,,,,,,,,,,,,,,,,,,,,,,,,,,,,,,,,,,,,
0.0,8.770045678829774e-05,2.39172101020813,0.42516931891441345,-0.00019152526510879397,0.24948586523532867,-0.453453004360199,-9.807682363316417e-05,0.2438870668411255,-0.33839043974876404,0.0,2.9768943786621094,-0.7327795028686523,0.0,16.5,,,,,,,,,,,,,,,,,,,,,,,,,,,,,,,,,,,,,,,,,,,,,,,,,,,,,,,,,,,,,,,,,,,,,,,,,,,,,,,,
0.0,8.770045678829774e-05,2.39172101020813,0.42516931891441345,-0.00019152526510879397,0.24948586523532867,-0.453453004360199,-9.807682363316417e-05,0.2438870668411255,-0.33839043974876404,0.0,2.6868581771850586,-0.6819963455200195,0.0,12.5,,,,,,,,,,,,,,,,,,,,,,,,,,,,,,,,,,,,,,,,,,,,,,,,,,,,,,,,,,,,,,,,,,,,,,,,,,,,,,,,
0.0,8.770045678829774e-05,2.39172101020813,0.42516931891441345,-0.00019152526510879397,0.24948586523532867,-0.453453004360199,-9.807682363316417e-05,0.2438870668411255,-0.33839043974876404,0.0,2.7626752853393555,-0.9462833404541016,-0.3835020959377289,14.25,0.0,2.7501583099365234,-0.6601810455322266,-0.3835020959377289,13.0,,,,,,,,,,,,,,,,,,,,,,,,,,,,,,,,,,,,,,,,,,,,,,,,,,,,,,,,,,,,,,,,,,,,,,,,,,,
0.0,8.770045678829774e-05,2.39172101020813,0.42516931891441345,-0.00019152526510879397,0.24948586523532867,-0.453453004360199,-9.807682363316417e-05,0.2438870668411255,-0.33839043974876404,0.0,2.874612808227539,-0.8879899978637695,-0.3835020959377289,12.75,0.0,2.8363466262817383,-0.8200407028198242,-0.3835020959377289,15.0,0.0,2.6764869689941406,-0.9047985076904297,0.0,13.25,0.0,2.7780532836914062,-0.9201765060424805,0.0,15.25,,,,,,,,,,,,,,,,,,,,,,,,,,,,,,,,,,,,,,,,,,,,,,,,,,,,,,,,,,,,,,,,,
0.0,8.770045678829774e-05,2.39172101020813,0.42516931891441345,-0.00019152526510879397,0.24948586523532867,-0.453453004360199,-9.807682363316417e-05,0.2438870668411255,-0.33839043974876404,0.0,2.7108192443847656,-0.6601810455322266,0.0,13.0,,,,,,,,,,,,,,,,,,,,,,,,,,,,,,,,,,,,,,,,,,,,,,,,,,,,,,,,,,,,,,,,,,,,,,,,,,,,,,,,
0.0,8.685229840921238e-05,2.385532855987549,0.4293519854545593,-0.0001922595256473869,0.23856429755687714,-0.4446771740913391,-9.852847142610699e-05,0.23223565518856049,-0.33044949173927307,0.0,2.5649070739746094,-1.1419057846069336,-0.7670041918754578,12.0,0.0,2.1146535873413086,0.5017518997192383,-0.19175104796886444,12.5,,,,,,,,,,,,,,,,,,,,,,,,,,,,,,,,,,,,,,,,,,,,,,,,,,,,,,,,,,,,,,,,,,,,,,,,,,,
0.0,8.538841939298436e-05,2.3772380352020264,0.42613932490348816,-0.00019327722839079797,0.2223149985074997,-0.44586417078971863,-9.936444985214621e-05,0.21233704686164856,-0.32972657680511475,0.0,2.126455307006836,0.3050565719604492,-0.19175104796886444,21.75,0.0,2.2655725479125977,0.24139881134033203,-0.19175104796886444,16.75,0.0,2.510190010070801,-0.2460479736328125,0.0,14.5,,,,,,,,,,,,,,,,,,,,,,,,,,,,,,,,,,,,,,,,,,,,,,,,,,,,,,,,,,,,,,,,,,,,,,
0.0,8.46535331220366e-05,2.379756450653076,0.41351333260536194,-0.000192971812793985,0.21984095871448517,-0.464417040348053,-9.93252033367753e-05,0.20285947620868683,-0.3441922962665558,0.0,2.4619102478027344,-0.2549886703491211,-0.19175104796886444,13.5,0.0,2.4851560592651367,-0.26357173919677734,0.0,15.25,,,,,,,,,,,,,,,,,,,,,,,,,,,,,,,,,,,,,,,,,,,,,,,,,,,,,,,,,,,,,,,,,,,,,,,,,,,
0.0,8.239153976319358e-05,2.3679590225219727,0.43070316314697266,-0.00019508057448547333,0.19918327033519745,-0.4337671995162964,-0.00010026916424976662,0.18237529695034027,-0.31826627254486084,0.0,2.6586055755615234,-0.8618831634521484,-0.3835020959377289,15.0,0.0,2.6911497116088867,-0.8944272994995117,-0.3835020959377289,12.25,0.0,2.072453498840332,0.6501674652099609,-0.19175104796886444,16.75,0.0,2.096414566040039,0.8096694946289062,-0.19175104796886444,12.5,0.0,2.6797056198120117,-1.0710954666137695,0.0,13.75,0.0,2.601027488708496,-0.9484291076660156,0.0,15.75,0.0,2.5044679641723633,-0.19025802612304688,0.0,15.5,,,,,,,,,,,,,,,,,,,,,,,,,,,,,,,,,,,,,,,,,,,,,,,,,,
0.0,8.239153976319358e-05,2.3679590225219727,0.43070316314697266,-0.00019508057448547333,0.19918327033519745,-0.4337671995162964,-0.00010026916424976662,0.18237529695034027,-0.31826627254486084,0.0,2.487659454345703,-1.2202262878417969,-0.9587552398443222,12.5,0.0,2.1947622299194336,-0.7034540176391602,-0.19175104796886444,13.75,0.0,2.5191307067871094,-0.22029876708984375,0.0,15.75,,,,,,,,,,,,,,,,,,,,,,,,,,,,,,,,,,,,,,,,,,,,,,,,,,,,,,,,,,,,,,,,,,,,,,
0.0,8.013099431991577e-05,2.3600516319274902,0.42091041803359985,-0.0001965949049917981,0.18208631873130798,-0.44481465220451355,-0.00010146822751266882,0.1594461053609848,-0.32524794340133667,0.0,2.1768808364868164,-0.1341104507446289,-0.19175104796886444,12.5,0.0,2.222299575805664,0.2492666244506836,-0.19175104796886444,20.75,0.0,2.2197961807250977,0.4177093505859375,-0.19175104796886444,18.25,,,,,,,,,,,,,,,,,,,,,,,,,,,,,,,,,,,,,,,,,,,,,,,,,,,,,,,,,,,,,,,,,,,,,,
0.0,7.910832937341183e-05,2.354135513305664,0.4066554307937622,-0.0001975835330085829,0.17301446199417114,-0.4638601243495941,-0.00010259877308271825,0.14798614382743835,-0.3385986089706421,0.0,2.5037527084350586,-1.0946989059448242,-0.5752531439065933,13.75,0.0,2.146482467651367,-0.07903575897216797,-0.19175104796886444,14.75,0.0,2.0989179611206055,0.12946128845214844,-0.19175104796886444,12.5,,,,,,,,,,,,,,,,,,,,,,,,,,,,,,,,,,,,,,,,,,,,,,,,,,,,,,,,,,,,,,,,,,,,,,
0.0,7.663802534807473e-05,2.3508894443511963,0.3744611144065857,-0.00019871789845637977,0.16015009582042694,-0.5085403323173523,-0.00010403375927126035,0.1237018033862114,-0.371313214302063,0.0,2.565622329711914,-0.8411407470703125,-0.3835020959377289,13.0,0.0,2.545952796936035,-0.4144906997680664,-0.19175104796886444,14.0,0.0,2.11179256439209,0.015377998352050781,-0.19175104796886444,17.75,0.0,2.129673957824707,-0.0032186508178710938,-0.19175104796886444,20.0,0.0,2.282381057739258,0.023603439331054688,-0.19175104796886444,12.75,,,,,,,,,,,,,,,,,,,,,,,,,,,,,,,,,,,,,,,,,,,,,,,,,,,,,,,,,,,,
0.0,5.408768993220292e-05,2.3383870124816895,0.3664337396621704,-0.00021163595374673605,0.11506347358226776,-0.4446479380130768,-0.00010624953574733809,0.05057069659233093,-0.274497926235199,0.0,2.373218536376953,-1.0718107223510742,-0.19175104796886444,14.0,0.0,1.9354820251464844,0.5153417587280273,-0.3835020959377289,17.75,0.0,1.9730329513549805,0.5993843078613281,-0.3835020959377289,24.25,0.0,1.9916296005249023,0.6662607192993164,-0.19175104796886444,24.25,0.0,2.0803213119506836,0.7445812225341797,-0.19175104796886444,16.0,0.0,2.069234848022461,0.35691261291503906,0.0,18.5,,,,,,,,,,,,,,,,,,,,,,,,,,,,,,,,,,,,,,,,,,,,,,,,,,,,,,,
0.0,3.259952791268006e-05,2.3266701698303223,0.3172345757484436,-0.00022070156410336494,0.06403320282697678,-0.46707600355148315,-0.00010627923620631918,-0.04417718946933746,-0.2715159058570862,0.0,2.515554428100586,-0.9298324584960938,0.3835020959377289,14.25,0.0,2.510190010070801,-0.4534721374511719,0.3835020959377289,15.25,0.0,2.230525016784668,0.1512765884399414,-0.3835020959377289,17.25,0.0,1.9708871841430664,0.3236532211303711,-0.3835020959377289,20.75,0.0,2.0009279251098633,0.3393888473510742,-0.3835020959377289,27.0,0.0,2.0345449447631836,0.36585330963134766,-0.3835020959377289,26.75,0.0,1.9669532775878906,0.4044771194458008,0.0,14.0,0.0,2.0241737365722656,0.4019737243652344,0.0,21.25,,,,,,,,,,,,,,,,,,,,,,,,,,,,,,,,,,,,,,,,,,,,,
0.0,1.270228767680237e-05,2.3141703605651855,0.23792091012001038,-0.0002256767184007913,0.004910856485366821,-0.5508899092674255,-0.00010339359141653404,-0.14862790703773499,-0.32913410663604736,0.0,2.5638341903686523,-0.8257627487182617,-0.19175104796886444,15.25,0.0,2.53450870513916,-0.6269216537475586,-0.19175104796886444,15.25,0.0,2.3363828659057617,-0.0890493392944336,-0.3835020959377289,13.75,0.0,2.0989179611206055,0.051856040954589844,-0.3835020959377289,17.75,0.0,1.9683837890625,0.22029876708984375,-0.19175104796886444,19.5,0.0,1.9011497497558594,0.36978721618652344,-0.3835020959377289,17.5,0.0,1.959085464477539,0.4169940948486328,0.0,12.75,0.0,2.0323991775512695,0.42951107025146484,0.0,20.5,0.0,2.0824670791625977,0.4216432571411133,0.0,26.25,,,,,,,,,,,,,,,,,,,,,,,,,,,,,,,,,,,,,,,,
0.0,-5.938630692980951e-06,2.298722982406616,0.1624264419078827,-0.00022824785264674574,-0.06309163570404053,-0.6154066324234009,-9.908789797918871e-05,-0.24658134579658508,-0.36125457286834717,0.0,2.5055408477783203,-0.8404254913330078,-0.19175104796886444,16.75,0.0,2.5484561920166016,-0.857234001159668,-0.19175104796886444,17.75,0.0,1.8879175186157227,0.34868717193603516,-0.3835020959377289,18.25,0.0,1.9129514694213867,0.4330873489379883,-0.3835020959377289,20.0,0.0,1.9894838333129883,0.49674510955810547,-0.3835020959377289,17.5,0.0,2.6110410690307617,-1.061081886291504,0.0,13.75,0.0,1.9140243530273438,0.38301944732666016,0.0,18.0,0.0,1.9873380661010742,0.3973245620727539,0.0,22.0,,,,,,,,,,,,,,,,,,,,,,,,,,,,,,,,,,,,,,,,,,,,,
0.0,-2.392156056885142e-05,2.243645668029785,0.2114236056804657,-0.00023427123960573226,-0.17796319723129272,-0.41792282462120056,-9.91046690614894e-05,-0.35169094800949097,-0.1507175713777542,0.0,2.4318695068359375,-0.9545087814331055,-0.19175104796886444,13.75,0.0,2.46584415435791,-1.0389089584350586,-0.19175104796886444,13.5,0.0,1.8121004104614258,0.4030466079711914,-0.3835020959377289,20.25,0.0,1.8439292907714844,0.4538297653198242,-0.3835020959377289,29.0,0.0,1.8442869186401367,0.5067586898803711,-0.3835020959377289,29.25,0.0,1.8771886825561523,0.630497932434082,-0.3835020959377289,23.0,,,,,,,,,,,,,,,,,,,,,,,,,,,,,,,,,,,,,,,,,,,,,,,,,,,,,,,
0.0,-3.956140790251084e-05,2.219858407974243,0.21797463297843933,-0.0002349587739445269,-0.21326196193695068,-0.33894121646881104,-9.438463166588917e-05,-0.3396753668785095,-0.06714493781328201,0.0,2.44295597076416,-0.9015798568725586,-0.3835020959377289,15.25,0.0,2.5234222412109375,-0.8718967437744141,-0.19175104796886444,15.0,0.0,2.3964643478393555,-0.5557537078857422,-0.3835020959377289,12.25,0.0,1.842498779296875,0.8111000061035156,-0.19175104796886444,19.0,0.0,1.913309097290039,0.7224082946777344,-0.19175104796886444,18.0,0.0,1.7845630645751953,0.8500814437866211,-0.19175104796886444,13.5,0.0,2.0259618759155273,0.44095516204833984,0.0,25.5,,,,,,,,,,,,,,,,,,,,,,,,,,,,,,,,,,,,,,,,,,,,,,,,,,
0.0,-5.246637010714039e-05,2.2326455116271973,0.06015254557132721,-0.00022701105626765639,-0.19535154104232788,-0.575605571269989,-8.277215238194913e-05,-0.29593896865844727,-0.264443039894104,0.0,2.5162696838378906,-0.652313232421875,-0.19175104796886444,14.5,0.0,2.6063919067382812,-0.6709098815917969,-0.19175104796886444,15.75,0.0,2.3850202560424805,-0.34868717193603516,-0.19175104796886444,13.5,0.0,2.178668975830078,0.0400543212890625,-0.19175104796886444,12.75,0.0,3.2912492752075195,0.29289722442626953,-0.3835020959377289,13.25,,,,,,,,,,,,,,,,,,,,,,,,,,,,,,,,,,,,,,,,,,,,,,,,,,,,,,,,,,,,
0.0,-5.125357347424142e-05,2.2086129188537598,-0.08300058543682098,-0.0002024974673986435,-0.2527312934398651,-0.7482088208198547,-6.33883464615792e-05,-0.35298216342926025,-0.3869723379611969,0.0,2.435445785522461,-0.9516477584838867,-0.9587552398443222,21.25,0.0,2.3070573806762695,-0.8411407470703125,-0.19175104796886444,16.5,0.0,2.5255680084228516,-0.845789909362793,-0.19175104796886444,21.0,0.0,2.6139020919799805,-0.8339881896972656,-0.19175104796886444,13.75,0.0,2.0509958267211914,0.0021457672119140625,-0.19175104796886444,19.5,0.0,1.820683479309082,0.2657175064086914,-0.19175104796886444,23.75,0.0,1.885056495666504,0.19812583923339844,-0.19175104796886444,22.75,0.0,1.7838478088378906,0.30612945556640625,-0.19175104796886444,18.5,,,,,,,,,,,,,,,,,,,,,,,,,,,,,,,,,,,,,,,,,,,,,
0.0,-6.164641672512516e-05,2.2016985416412354,-0.24383431673049927,-0.0001940663205459714,-0.27006909251213074,-0.9325608015060425,-5.421185778686777e-05,-0.3489951491355896,-0.5088945627212524,0.0,2.3549795150756836,-0.8543729782104492,-0.19175104796886444,16.5,0.0,2.4493932723999023,-0.7992982864379883,-0.19175104796886444,19.5,0.0,2.54058837890625,-0.6830692291259766,-0.19175104796886444,17.25,0.0,3.256559371948242,0.31435489654541016,-0.3835020959377289,12.75,0.0,2.5860071182250977,-0.9913444519042969,0.0,14.5,,,,,,,,,,,,,,,,,,,,,,,,,,,,,,,,,,,,,,,,,,,,,,,,,,,,,,,,,,,,
0.0,-6.927188951522112e-05,2.200195789337158,-0.431810200214386,-0.0001830451365094632,-0.2651944160461426,-1.1434073448181152,-4.433774302015081e-05,-0.30938810110092163,-0.6456353664398193,0.0,2.439737319946289,-0.9330511093139648,0.19175104796886444,17.25,0.0,2.373933792114258,-0.7420778274536133,0.19175104796886444,13.5,0.0,2.525210380554199,-0.8733272552490234,-0.19175104796886444,17.0,0.0,2.616763114929199,-0.8625984191894531,0.0,12.75,,,,,,,,,,,,,,,,,,,,,,,,,,,,,,,,,,,,,,,,,,,,,,,,,,,,,,,,,,,,,,,,,
0.0,-7.009693945292383e-05,2.1998414993286133,-0.553822934627533,-0.0001653153303777799,-0.2841986417770386,-1.2014613151550293,-3.183208536938764e-05,-0.3292873799800873,-0.6248675584793091,0.0,2.511262893676758,-0.767827033996582,-0.5752531439065933,14.0,0.0,2.6092529296875,-0.7899999618530273,0.19175104796886444,16.5,0.0,2.7008056640625,-0.7431507110595703,-0.19175104796886444,13.0,0.0,2.392888069152832,-0.3998279571533203,-0.19175104796886444,12.5,0.0,1.7330646514892578,0.5135536193847656,0.19175104796886444,13.25,0.0,1.7441511154174805,0.630497932434082,0.19175104796886444,19.0,0.0,1.7970800399780273,0.6251335144042969,0.19175104796886444,19.0,0.0,1.9326210021972656,0.6015300750732422,-0.19175104796886444,13.75,0.0,2.5205612182617188,-0.8257627487182617,0.0,21.75,0.0,2.6210546493530273,-0.8246898651123047,0.0,13.5,,,,,,,,,,,,,,,,,,,,,,,,,,,,,,,,,,,
0.0,-7.824077329132706e-05,2.1685521602630615,-0.5655040144920349,-0.00016011737170629203,-0.3101690411567688,-1.0820060968399048,-2.7795458663604222e-05,-0.31981396675109863,-0.4721079170703888,0.0,2.0617246627807617,-0.10192394256591797,-0.19175104796886444,13.75,0.0,1.898646354675293,0.08690357208251953,-0.19175104796886444,15.75,0.0,1.784205436706543,0.2703666687011719,-0.19175104796886444,13.75,0.0,1.8296241760253906,0.2238750457763672,-0.19175104796886444,18.5,,,,,,,,,,,,,,,,,,,,,,,,,,,,,,,,,,,,,,,,,,,,,,,,,,,,,,,,,,,,,,,,,
0.0,-7.125136471586302e-05,2.163527727127075,-0.39092767238616943,-0.0001404695212841034,-0.25407084822654724,-0.6907826662063599,-1.7005102563416585e-05,-0.2079223394393921,-0.12259715795516968,0.0,1.8514394760131836,0.09655952453613281,-0.19175104796886444,24.0,0.0,1.891493797302246,0.09834766387939453,-0.19175104796886444,33.0,0.0,1.9251108169555664,0.10192394256591797,-0.19175104796886444,32.25,0.0,2.0273923873901367,0.13053417205810547,-0.19175104796886444,27.5,0.0,2.1904706954956055,0.21636486053466797,-0.19175104796886444,17.75,,,,,,,,,,,,,,,,,,,,,,,,,,,,,,,,,,,,,,,,,,,,,,,,,,,,,,,,,,,,
0.0,-5.8893230743706226e-05,2.160727024078369,-0.28946399688720703,-0.00011459452798590064,-0.20862019062042236,-0.44429919123649597,-2.8918066163896583e-06,-0.13012562692165375,0.08303149044513702,0.0,2.3213624954223633,-0.8826255798339844,-0.19175104796886444,16.5,0.0,2.2956132888793945,-0.5300045013427734,-0.19175104796886444,17.5,0.0,2.1665096282958984,-0.1494884490966797,-0.19175104796886444,19.75,0.0,2.2984743118286133,0.1627206802368164,-0.19175104796886444,16.5,0.0,1.799941062927246,0.17523765563964844,-0.19175104796886444,19.75,0.0,1.7913579940795898,0.24318695068359375,-0.19175104796886444,25.0,0.0,1.834273338317871,0.39196014404296875,-0.19175104796886444,19.75,,,,,,,,,,,,,,,,,,,,,,,,,,,,,,,,,,,,,,,,,,,,,,,,,,
0.0,-5.276598676573485e-05,2.1395435333251953,-0.27593907713890076,-9.618440526537597e-05,-0.1862812042236328,-0.35376816987991333,6.835621206846554e-06,-0.06567183136940002,0.14389163255691528,0.0,2.3589134216308594,-0.653386116027832,0.5752531439065933,12.75,0.0,1.8811225891113281,-0.12087821960449219,-0.19175104796886444,24.25,0.0,2.0513534545898438,-0.18203258514404297,0.19175104796886444,20.5,0.0,1.8335580825805664,0.0035762786865234375,-0.19175104796886444,20.25,0.0,1.8500089645385742,-0.0400543212890625,-0.19175104796886444,27.25,0.0,2.2884607315063477,-0.050067901611328125,-0.19175104796886444,17.0,,,,,,,,,,,,,,,,,,,,,,,,,,,,,,,,,,,,,,,,,,,,,,,,,,,,,,,
0.0,-4.760537558468059e-05,2.1379611492156982,-0.21160367131233215,-8.025729766814038e-05,-0.12781591713428497,-0.187053844332695,1.4712184565723874e-05,0.026428326964378357,0.26755791902542114,0.0,2.398967742919922,-0.6583929061889648,0.3835020959377289,13.25,0.0,1.8450021743774414,0.05435943603515625,-0.19175104796886444,18.25,0.0,1.8925666809082031,0.05257129669189453,-0.19175104796886444,27.5,0.0,1.9276142120361328,0.08654594421386719,-0.19175104796886444,27.0,0.0,2.044200897216797,0.1838207244873047,0.19175104796886444,22.25,0.0,2.248406410217285,0.08761882781982422,0.19175104796886444,15.75,0.0,2.225160598754883,-1.044631004333496,0.0,19.0,0.0,1.8700361251831055,0.12695789337158203,0.0,23.5,0.0,1.9218921661376953,0.12373924255371094,0.0,24.0,,,,,,,,,,,,,,,,,,,,,,,,,,,,,,,,,,,,,,,,
0.0,-4.230915874359198e-05,2.1227309703826904,-0.22187769412994385,-6.415694224415347e-05,-0.10367146134376526,-0.15239554643630981,2.2631844331044704e-05,0.0741666704416275,0.2704680562019348,0.0,2.3152828216552734,-0.9906291961669922,0.19175104796886444,16.0,0.0,2.3381710052490234,-0.5038976669311523,0.3835020959377289,15.0,0.0,2.086758613586426,-0.2092123031616211,0.3835020959377289,14.25,0.0,1.80816650390625,0.04220008850097656,-0.19175104796886444,18.5,0.0,1.8324851989746094,0.012516975402832031,-0.19175104796886444,24.75,0.0,1.8725395202636719,-0.011444091796875,-0.19175104796886444,21.25,0.0,2.369999885559082,-0.971674919128418,0.0,19.25,0.0,2.056717872619629,0.05364418029785156,0.0,25.25,0.0,1.9190311431884766,0.08511543273925781,0.0,24.75,,,,,,,,,,,,,,,,,,,,,,,,,,,,,,,,,,,,,,,,
0.0,-3.615557579905726e-05,2.1110825538635254,-0.17759758234024048,-4.804521449841559e-05,-0.1112305298447609,-0.02053368091583252,3.0426581361098215e-05,0.037658724933862686,0.36868879199028015,0.0,2.3921728134155273,-0.8969306945800781,-0.19175104796886444,18.75,0.0,2.333521842956543,-0.8332729339599609,-0.19175104796886444,15.5,0.0,2.4737119674682617,-0.8625984191894531,-0.19175104796886444,15.25,0.0,2.0105838775634766,0.1684427261352539,-0.19175104796886444,12.5,0.0,1.7688274383544922,0.28073787689208984,-0.19175104796886444,23.25,0.0,1.7849206924438477,0.3050565719604492,-0.19175104796886444,27.75,0.0,1.8153190612792969,0.34046173095703125,-0.19175104796886444,23.75,0.0,2.3642778396606445,-0.9105205535888672,0.0,22.0,0.0,2.292752265930176,-0.8225440979003906,0.0,21.75,,,,,,,,,,,,,,,,,,,,,,,,,,,,,,,,,,,,,,,,
0.0,-3.13794007524848e-05,2.111180305480957,-0.18931837379932404,-3.423200178076513e-05,-0.09533145278692245,-0.0053223539143800735,3.6505094612948596e-05,0.04766009747982025,0.3481011390686035,0.0,2.304553985595703,-0.8969306945800781,-0.19175104796886444,16.25,0.0,2.368927001953125,-0.9527206420898438,-0.19175104796886444,19.75,0.0,2.431154251098633,-0.9434223175048828,0.19175104796886444,16.0,0.0,2.178668975830078,-0.6365776062011719,0.19175104796886444,12.75,0.0,1.6908645629882812,0.4291534423828125,-0.19175104796886444,20.25,0.0,1.694798469543457,0.47600269317626953,-0.19175104796886444,22.5,0.0,1.7169713973999023,0.6548166275024414,-0.19175104796886444,16.25,0.0,2.3342370986938477,-0.9441375732421875,0.0,22.0,0.0,2.447962760925293,-0.9241104125976562,0.0,16.25,0.0,2.286672592163086,-0.8418560028076172,0.0,22.0,0.0,1.9097328186035156,0.0833272933959961,0.0,24.5,0.0,2.057790756225586,0.0947713851928711,0.0,24.75,,,,,,,,,,,,,,,,,,,,,,,,,
0.0,-2.866191789507866e-05,2.083153009414673,-0.10226752609014511,-2.3825625248719007e-05,-0.10647358000278473,0.18767763674259186,4.0447812352795154e-05,0.033574674278497696,0.493638813495636,0.0,2.3560523986816406,-0.9505748748779297,0.19175104796886444,15.0,0.0,1.6293525695800781,0.36406517028808594,-0.19175104796886444,16.5,0.0,1.669764518737793,0.3515481948852539,-0.19175104796886444,24.25,0.0,1.6815662384033203,0.3286600112915039,-0.19175104796886444,23.75,0.0,1.7580986022949219,0.29218196868896484,-0.19175104796886444,13.5,0.0,1.9054412841796875,0.08118152618408203,0.0,24.25,,,,,,,,,,,,,,,,,,,,,,,,,,,,,,,,,,,,,,,,,,,,,,,,,,,,,,,
0.0,-2.2094303858466446e-05,2.098973274230957,0.031432099640369415,-9.867145308817271e-06,-0.010986827313899994,0.4407094717025757,4.59877701359801e-05,0.17554055154323578,0.673783004283905,0.0,2.348184585571289,-0.8171796798706055,0.19175104796886444,14.25,0.0,2.4050474166870117,-0.8472204208374023,0.19175104796886444,17.5,0.0,2.4611949920654297,-0.8533000946044922,0.19175104796886444,13.75,0.0,1.9387006759643555,0.43022632598876953,0.19175104796886444,12.75,0.0,1.6222000122070312,0.4520416259765625,-0.19175104796886444,12.5,0.0,1.6973018646240234,0.5260705947875977,0.19175104796886444,23.5,0.0,1.729130744934082,0.5671977996826172,0.19175104796886444,27.75,0.0,1.7709732055664062,0.5739927291870117,0.19175104796886444,24.75,0.0,2.0771026611328125,0.12481212615966797,0.0,21.5,,,,,,,,,,,,,,,,,,,,,,,,,,,,,,,,,,,,,,,,
0.0,-2.1232946892268956e-05,2.094355344772339,0.14715036749839783,-3.3786045605666004e-06,0.012818391434848309,0.6347480416297913,4.7094734327401966e-05,0.1905333548784256,0.7884755730628967,0.0,1.6400814056396484,0.7034540176391602,0.19175104796886444,20.0,0.0,1.6450881958007812,0.80108642578125,0.19175104796886444,24.5,0.0,1.6497373580932617,0.8665323257446289,0.19175104796886444,22.0,0.0,2.485513687133789,-0.8168220520019531,0.0,16.0,0.0,2.06601619720459,0.044345855712890625,0.0,20.5,,,,,,,,,,,,,,,,,,,,,,,,,,,,,,,,,,,,,,,,,,,,,,,,,,,,,,,,,,,,
0.0,-1.6089265045593493e-05,2.0849173069000244,0.1611556112766266,7.749137694190722e-06,0.0433388389647007,0.6271619200706482,5.088274338049814e-05,0.23287945985794067,0.7183067202568054,0.0,2.3789405822753906,-0.8969306945800781,0.19175104796886444,12.25,0.0,2.456545829772949,-0.8561611175537109,0.19175104796886444,18.5,0.0,2.5037527084350586,-0.7939338684082031,0.19175104796886444,16.5,0.0,1.6543865203857422,0.2599954605102539,0.19175104796886444,19.75,0.0,1.6869306564331055,0.25141239166259766,0.19175104796886444,28.25,0.0,1.6847848892211914,0.23353099822998047,0.19175104796886444,28.25,0.0,1.7695426940917969,0.18024444580078125,0.19175104796886444,16.5,0.0,2.366781234741211,-0.9044408798217773,0.0,22.75,0.0,1.7784833908081055,0.27680397033691406,0.0,26.5,0.0,1.657247543334961,0.30541419982910156,0.0,12.5,0.0,1.7327070236206055,0.2843141555786133,0.0,22.75,,,,,,,,,,,,,,,,,,,,,,,,,,,,,,
0.0,-1.3122124983055983e-05,2.074413299560547,0.2050144225358963,1.528563916508574e-05,0.05709058791399002,0.6643931865692139,5.236826837062836e-05,0.23676797747612,0.6913819909095764,0.0,1.753091812133789,-0.04935264587402344,0.19175104796886444,15.0,0.0,1.7895698547363281,0.0711679458618164,0.19175104796886444,17.5,0.0,1.844644546508789,0.26929378509521484,0.19175104796886444,13.25,0.0,2.3496150970458984,-0.9130239486694336,0.0,22.25,0.0,2.3227930068969727,-0.8411407470703125,0.0,20.25,0.0,2.480149269104004,-0.8279085159301758,0.0,16.25,0.0,1.6454458236694336,0.3197193145751953,0.0,12.5,0.0,1.7151832580566406,0.3025531768798828,0.0,22.0,0.0,1.759171485900879,0.28324127197265625,0.0,25.75,,,,,,,,,,,,,,,,,,,,,,,,,,,,,,,,,,,,,,,,
0.0,-9.366767699248157e-06,2.059255361557007,0.2659226059913635,2.300100095453672e-05,0.05922500789165497,0.7225910425186157,5.3879459301242605e-05,0.22526530921459198,0.6848567724227905,0.0,2.237677574157715,-1.0989904403686523,0.19175104796886444,13.25,0.0,2.2455453872680664,-1.1562108993530273,0.19175104796886444,15.75,0.0,1.8078088760375977,0.11444091796875,0.19175104796886444,20.0,0.0,1.8364191055297852,0.1863241195678711,0.19175104796886444,27.75,0.0,1.8492937088012695,0.2599954605102539,0.19175104796886444,26.5,0.0,1.958012580871582,0.4134178161621094,0.19175104796886444,14.75,0.0,2.3099184036254883,-0.8919239044189453,0.0,20.25,0.0,2.3478269577026367,-0.9194612503051758,0.0,22.0,0.0,2.158999443054199,-0.5267858505249023,0.0,16.0,0.0,1.6493797302246094,0.31256675720214844,0.0,12.75,0.0,1.713395118713379,0.29540061950683594,0.0,22.5,0.0,1.8035173416137695,0.3751516342163086,0.0,22.25,,,,,,,,,,,,,,,,,,,,,,,,,
0.0,-5.691852493328042e-06,2.0655410289764404,0.2676033079624176,2.978471093229018e-05,0.09301664680242538,0.6696995496749878,5.472027987707406e-05,0.24558326601982117,0.5848714709281921,0.0,1.901865005493164,-0.08618831634521484,0.19175104796886444,18.25,0.0,1.955866813659668,0.023603439331054688,0.19175104796886444,20.0,0.0,2.0509958267211914,0.040411949157714844,0.19175104796886444,14.25,0.0,2.2916793823242188,-0.9251832962036133,0.0,17.0,0.0,2.367854118347168,-0.9237527847290039,0.0,19.25,0.0,2.5631189346313477,-0.6988048553466797,0.0,15.25,0.0,1.6418695449829102,0.31435489654541016,0.0,13.5,,,,,,,,,,,,,,,,,,,,,,,,,,,,,,,,,,,,,,,,,,,,,,,,,,
0.0,-1.8749904029391473e-06,2.0946414470672607,0.22498780488967896,3.5962970287073404e-05,0.15724101662635803,0.5449037551879883,5.513723590411246e-05,0.2900446355342865,0.43435201048851013,0.0,2.333521842956543,-0.7002353668212891,0.19175104796886444,13.25,0.0,2.4400949478149414,-0.7660388946533203,0.19175104796886444,14.75,0.0,2.553105354309082,-0.6673336029052734,0.19175104796886444,12.75,0.0,1.8696784973144531,-0.006079673767089844,0.19175104796886444,15.25,0.0,1.932978630065918,-0.048995018005371094,0.19175104796886444,16.0,0.0,2.3245811462402344,-0.9133815765380859,0.0,18.0,0.0,1.842498779296875,0.2739429473876953,0.0,21.5,0.0,2.002716064453125,0.26535987854003906,0.0,14.5,0.0,1.6440153121948242,0.3014802932739258,0.0,13.0,,,,,,,,,,,,,,,,,,,,,,,,,,,,,,,,,,,,,,,,
0.0,1.9969929780927487e-06,2.111815929412842,0.28164994716644287,2.0738347302540205e-05,0.09312274307012558,0.29416948556900024,0.0,0.0,0.0,0.0,2.338528633117676,-1.0274648666381836,0.19175104796886444,13.75,0.0,1.7817020416259766,0.23353099822998047,0.0,23.0,0.0,1.8625259399414062,0.25534629821777344,0.0,21.5,0.0,1.6450881958007812,0.2810955047607422,0.0,12.5,,,,,,,,,,,,,,,,,,,,,,,,,,,,,,,,,,,,,,,,,,,,,,,,,,,,,,,,,,,,,,,,,
0.0,4.070827799296239e-06,2.1211283206939697,0.3110668957233429,0.0,0.0,0.0,0.0,0.0,0.0,0.0,2.5244951248168945,-0.7638931274414062,0.0,16.5,0.0,1.725912094116211,0.23996829986572266,0.0,20.75,0.0,1.7870664596557617,0.24247169494628906,0.0,24.0,,,,,,,,,,,,,,,,,,,,,,,,,,,,,,,,,,,,,,,,,,,,,,,,,,,,,,,,,,,,,,,,,,,,,,
0.0,4.070827799296239e-06,2.1211283206939697,0.3110668957233429,0.0,0.0,0.0,0.0,0.0,0.0,0.0,2.3903846740722656,-0.8972883224487305,0.0,18.25,0.0,2.5309324264526367,-0.7699728012084961,0.0,15.75,,,,,,,,,,,,,,,,,,,,,,,,,,,,,,,,,,,,,,,,,,,,,,,,,,,,,,,,,,,,,,,,,,,,,,,,,,,
0.0,4.070827799296239e-06,2.1211283206939697,0.3110668957233429,0.0,0.0,0.0,0.0,0.0,0.0,0.0,2.424001693725586,-0.7903575897216797,0.0,16.25,0.0,2.5609731674194336,-0.6848573684692383,0.0,13.5,,,,,,,,,,,,,,,,,,,,,,,,,,,,,,,,,,,,,,,,,,,,,,,,,,,,,,,,,,,,,,,,,,,,,,,,,,,
0.0,4.070827799296239e-06,2.1211283206939697,0.3110668957233429,0.0,0.0,0.0,0.0,0.0,0.0,0.0,2.5681257247924805,-0.6330013275146484,0.0,12.75,,,,,,,,,,,,,,,,,,,,,,,,,,,,,,,,,,,,,,,,,,,,,,,,,,,,,,,,,,,,,,,,,,,,,,,,,,,,,,,,
0.0,4.070827799296239e-06,2.1211283206939697,0.3110668957233429,0.0,0.0,0.0,0.0,0.0,0.0,0.0,1.8639564514160156,0.02110004425048828,0.0,17.25,,,,,,,,,,,,,,,,,,,,,,,,,,,,,,,,,,,,,,,,,,,,,,,,,,,,,,,,,,,,,,,,,,,,,,,,,,,,,,,,
0.0,3.7260185763443587e-06,2.1124134063720703,0.2891904413700104,-4.072644514963031e-07,-0.019268514588475227,-0.03661796450614929,-2.236671434729942e-07,-0.02606607973575592,-0.03146204724907875,0.0,1.999497413635254,0.09191036224365234,-0.19175104796886444,13.5,,,,,,,,,,,,,,,,,,,,,,,,,,,,,,,,,,,,,,,,,,,,,,,,,,,,,,,,,,,,,,,,,,,,,,,,,,,,,,,,
0.0,3.3893634281412233e-06,2.0982062816619873,0.3119213879108429,-8.188379183593497e-07,-0.04826771840453148,-0.003423672169446945,-4.569676548271673e-07,-0.05984440818428993,-0.0069964006543159485,0.0,1.9469261169433594,0.4674196243286133,-0.19175104796886444,13.5,,,,,,,,,,,,,,,,,,,,,,,,,,,,,,,,,,,,,,,,,,,,,,,,,,,,,,,,,,,,,,,,,,,,,,,,,,,,,,,,
0.0,2.9195834940765053e-06,2.102818727493286,0.3074897825717926,-1.2552100088214502e-06,-0.022468015551567078,-0.0045569883659482,-6.835611543465347e-07,-0.01674104854464531,-0.003185400040820241,0.0,1.9469261169433594,0.28824806213378906,0.19175104796886444,13.5,0.0,1.989126205444336,0.2739429473876953,0.19175104796886444,18.25,0.0,1.94549560546875,0.2542734146118164,0.0,13.0,0.0,1.9977092742919922,0.1977682113647461,0.0,17.5,,,,,,,,,,,,,,,,,,,,,,,,,,,,,,,,,,,,,,,,,,,,,,,,,,,,,,,,,,,,,,,,,
0.0,2.4096686956909252e-06,2.077427625656128,0.26313093304634094,-1.9107951629848685e-06,-0.08454728871583939,-0.0824618861079216,-1.0438905064802384e-06,-0.10293065011501312,-0.07298096269369125,0.0,1.947641372680664,0.046133995056152344,-0.3835020959377289,15.0,0.0,1.9780397415161133,0.08296966552734375,-0.3835020959377289,18.0,0.0,2.0456314086914062,0.14734268188476562,-0.3835020959377289,12.75,0.0,1.9587278366088867,0.1709461212158203,0.0,14.75,0.0,1.990199089050293,0.16808509826660156,0.0,19.25,,,,,,,,,,,,,,,,,,,,,,,,,,,,,,,,,,,,,,,,,,,,,,,,,,,,,,,,,,,,
0.0,2.0693942133220844e-06,2.0671393871307373,0.21337120234966278,-2.326651838302496e-06,-0.1114317923784256,-0.16375000774860382,-1.2684405419349787e-06,-0.14344777166843414,-0.14102298021316528,0.0,2.097487449645996,-0.12052059173583984,-0.19175104796886444,12.75,0.0,1.925826072692871,0.05793571472167969,-0.3835020959377289,13.5,0.0,1.9844770431518555,-0.021457672119140625,-0.3835020959377289,16.25,0.0,1.9526481628417969,0.16951560974121094,0.0,15.25,0.0,1.9873380661010742,0.15413761138916016,0.0,19.25,0.0,2.067089080810547,0.12481212615966797,0.0,18.25,,,,,,,,,,,,,,,,,,,,,,,,,,,,,,,,,,,,,,,,,,,,,,,,,,,,,,,
0.0,1.9534747934812913e-06,2.071225643157959,0.17402243614196777,-2.5313438527518883e-06,-0.1195119097828865,-0.228176549077034,-1.3964619256512378e-06,-0.16806405782699585,-0.19467240571975708,0.0,2.457261085510254,-0.5872249603271484,-0.19175104796886444,12.5,0.0,1.9794702529907227,0.05507469177246094,-0.5752531439065933,15.0,0.0,2.0624399185180664,0.1480579376220703,0.0,17.0,,,,,,,,,,,,,,,,,,,,,,,,,,,,,,,,,,,,,,,,,,,,,,,,,,,,,,,,,,,,,,,,,,,,,,
0.0,1.6789570054243086e-06,2.050011157989502,0.1885085254907608,-2.862000656023156e-06,-0.1603086143732071,-0.2061476856470108,-1.5756286302348599e-06,-0.2150479108095169,-0.17759978771209717,0.0,1.8464326858520508,0.1766681671142578,-0.3835020959377289,14.5,0.0,1.8489360809326172,0.1766681671142578,-0.3835020959377289,14.5,0.0,1.907944679260254,0.3050565719604492,-0.3835020959377289,14.5,0.0,2.200484275817871,-0.8876323699951172,0.0,12.25,0.0,2.0470619201660156,0.21207332611083984,0.0,17.25,,,,,,,,,,,,,,,,,,,,,,,,,,,,,,,,,,,,,,,,,,,,,,,,,,,,,,,,,,,,
0.0,1.6789570054243086e-06,2.050011157989502,0.1885085254907608,-2.862000656023156e-06,-0.1603086143732071,-0.2061476856470108,-1.5756286302348599e-06,-0.2150479108095169,-0.17759978771209717,0.0,2.2287368774414062,-0.8411407470703125,0.0,12.5,0.0,1.9025802612304688,0.1856088638305664,0.0,17.0,0.0,1.9619464874267578,0.22029876708984375,0.0,19.5,0.0,2.0470619201660156,0.21708011627197266,0.0,18.0,,,,,,,,,,,,,,,,,,,,,,,,,,,,,,,,,,,,,,,,,,,,,,,,,,,,,,,,,,,,,,,,,
0.0,1.6789570054243086e-06,2.050011157989502,0.1885085254907608,-2.862000656023156e-06,-0.1603086143732071,-0.2061476856470108,-1.5756286302348599e-06,-0.2150479108095169,-0.17759978771209717,0.0,2.1085739135742188,-1.1408329010009766,0.0,12.25,0.0,1.8514394760131836,0.19598007202148438,0.0,19.0,0.0,1.942276954650879,0.20706653594970703,0.0,19.75,0.0,2.0374059677124023,0.23925304412841797,0.0,17.25,,,,,,,,,,,,,,,,,,,,,,,,,,,,,,,,,,,,,,,,,,,,,,,,,,,,,,,,,,,,,,,,,
0.0,1.595571916368499e-06,2.042381525039673,0.20414477586746216,-2.9617324344144436e-06,-0.1741156280040741,-0.18196621537208557,-1.6304110204146127e-06,-0.22952517867088318,-0.1585172563791275,0.0,1.7899274826049805,0.47457218170166016,-0.3835020959377289,15.25,0.0,2.196192741394043,-0.9527206420898438,0.0,12.0,0.0,1.9261837005615234,0.14662742614746094,0.0,18.25,0.0,2.0581483840942383,0.14162063598632812,0.0,15.5,,,,,,,,,,,,,,,,,,,,,,,,,,,,,,,,,,,,,,,,,,,,,,,,,,,,,,,,,,,,,,,,,
0.0,1.595571916368499e-06,2.042381525039673,0.20414477586746216,-2.9617324344144436e-06,-0.1741156280040741,-0.18196621537208557,-1.6304110204146127e-06,-0.22952517867088318,-0.1585172563791275,0.0,2.113938331604004,-1.1601448059082031,0.0,12.25,0.0,2.15756893157959,-1.3132095336914062,0.0,12.5,0.0,2.057790756225586,0.03719329833984375,0.0,15.25,0.0,1.9279718399047852,0.1398324966430664,0.0,18.5,,,,,,,,,,,,,,,,,,,,,,,,,,,,,,,,,,,,,,,,,,,,,,,,,,,,,,,,,,,,,,,,,
0.0,1.595571916368499e-06,2.042381525039673,0.20414477586746216,-2.9617324344144436e-06,-0.1741156280040741,-0.18196621537208557,-1.6304110204146127e-06,-0.22952517867088318,-0.1585172563791275,0.0,1.9068717956542969,0.16307830810546875,0.0,16.75,0.0,2.0585060119628906,0.08153915405273438,0.0,12.0,0.0,1.7670392990112305,0.2789497375488281,0.0,19.25,,,,,,,,,,,,,,,,,,,,,,,,,,,,,,,,,,,,,,,,,,,,,,,,,,,,,,,,,,,,,,,,,,,,,,
0.0,1.595571916368499e-06,2.042381525039673,0.20414477586746216,-2.9617324344144436e-06,-0.1741156280040741,-0.18196621537208557,-1.6304110204146127e-06,-0.22952517867088318,-0.1585172563791275,0.0,1.8868446350097656,0.24211406707763672,0.0,16.25,,,,,,,,,,,,,,,,,,,,,,,,,,,,,,,,,,,,,,,,,,,,,,,,,,,,,,,,,,,,,,,,,,,,,,,,,,,,,,,,
0.0,1.3197567341194372e-06,2.0168144702911377,0.23704250156879425,-3.1602573926647892e-06,-0.19770419597625732,-0.1274300217628479,-1.7039861859302619e-06,-0.23507624864578247,-0.11297919601202011,0.0,1.541733741760254,0.34618377685546875,-0.19175104796886444,14.5,0.0,1.6762018203735352,0.3762245178222656,-0.19175104796886444,12.75,0.0,1.566767692565918,0.4101991653442383,-0.19175104796886444,17.25,,,,,,,,,,,,,,,,,,,,,,,,,,,,,,,,,,,,,,,,,,,,,,,,,,,,,,,,,,,,,,,,,,,,,,
0.0,1.1073291261709528e-06,1.996131181716919,0.24848423898220062,-3.280773626102018e-06,-0.2126389443874359,-0.10608968883752823,-1.7320064671366708e-06,-0.23252122104167938,-0.09366510063409805,0.0,1.5567541122436523,0.2760887145996094,-0.19175104796886444,14.5,0.0,1.6028881072998047,0.2689361572265625,-0.19175104796886444,17.5,0.0,1.6465187072753906,0.3179311752319336,-0.19175104796886444,13.25,,,,,,,,,,,,,,,,,,,,,,,,,,,,,,,,,,,,,,,,,,,,,,,,,,,,,,,,,,,,,,,,,,,,,,
0.0,1.0415774340799544e-06,1.9884898662567139,0.24968883395195007,-3.3060020996344974e-06,-0.2174658626317978,-0.10275708138942719,-1.7298875718552154e-06,-0.23043930530548096,-0.09003905951976776,0.0,1.4748573303222656,0.2313852310180664,-0.19175104796886444,16.0,,,,,,,,,,,,,,,,,,,,,,,,,,,,,,,,,,,,,,,,,,,,,,,,,,,,,,,,,,,,,,,,,,,,,,,,,,,,,,,,
0.0,9.391354751642211e-07,1.9738843441009521,0.22675324976444244,-3.3423434615542646e-06,-0.2315141260623932,-0.13740450143814087,-1.7165020835818723e-06,-0.23760323226451874,-0.11720594763755798,0.0,1.5099048614501953,-0.05507469177246094,-0.3835020959377289,21.0,0.0,1.4569759368896484,-0.03719329833984375,-0.3835020959377289,13.5,,,,,,,,,,,,,,,,,,,,,,,,,,,,,,,,,,,,,,,,,,,,,,,,,,,,,,,,,,,,,,,,,,,,,,,,,,,
0.0,8.01620444690343e-07,1.9520790576934814,0.1973048597574234,-3.3709579838614445e-06,-0.25053584575653076,-0.18076294660568237,-1.6816732113511534e-06,-0.24417340755462646,-0.15032826364040375,0.0,1.5377998352050781,-0.3107786178588867,-0.3835020959377289,13.25,0.0,1.4061927795410156,-0.004649162292480469,-0.3835020959377289,13.5,0.0,1.4376640319824219,0.12159347534179688,-0.3835020959377289,17.0,,,,,,,,,,,,,,,,,,,,,,,,,,,,,,,,,,,,,,,,,,,,,,,,,,,,,,,,,,,,,,,,,,,,,,
0.0,6.535337320201506e-07,1.9260523319244385,0.18315893411636353,-3.395008207007777e-06,-0.2731682062149048,-0.19916026294231415,-1.6406952454417478e-06,-0.2504393458366394,-0.16267937421798706,0.0,1.8246173858642578,-1.2563467025756836,-0.5752531439065933,15.0,0.0,1.7123222351074219,-0.09906291961669922,-0.3835020959377289,14.25,0.0,1.4122724533081055,0.05435943603515625,-0.3835020959377289,18.0,0.0,1.4569759368896484,0.12981891632080078,-0.3835020959377289,22.0,0.0,1.5395879745483398,0.1316070556640625,-0.3835020959377289,19.5,,,,,,,,,,,,,,,,,,,,,,,,,,,,,,,,,,,,,,,,,,,,,,,,,,,,,,,,,,,,
0.0,2.8883161462545104e-07,1.8972264528274536,0.15795114636421204,-3.559602191671729e-06,-0.2948923707008362,-0.22284545004367828,-1.635545913813985e-06,-0.24334970116615295,-0.16903921961784363,0.0,1.4952421188354492,-1.2552738189697266,-0.19175104796886444,12.75,0.0,1.6307830810546875,-1.279592514038086,-0.3835020959377289,19.25,0.0,1.7037391662597656,-1.2581348419189453,-0.3835020959377289,18.5,0.0,1.7974376678466797,0.0629425048828125,-0.19175104796886444,14.5,0.0,1.736283302307129,-0.022172927856445312,0.0,15.25,,,,,,,,,,,,,,,,,,,,,,,,,,,,,,,,,,,,,,,,,,,,,,,,,,,,,,,,,,,,
0.0,-8.362443537635045e-08,1.8538272380828857,0.16687870025634766,-3.713483692990849e-06,-0.33121687173843384,-0.17930977046489716,-1.6344234836651594e-06,-0.24821434915065765,-0.11255373060703278,0.0,1.7244815826416016,-1.176595687866211,0.3835020959377289,18.75,0.0,1.7552375793457031,-1.190185546875,0.3835020959377289,18.75,0.0,1.8260478973388672,-0.20456314086914062,-0.19175104796886444,12.5,0.0,1.1866092681884766,0.7413625717163086,-0.3835020959377289,17.25,0.0,1.1386871337890625,0.7381439208984375,-0.3835020959377289,16.75,0.0,1.4151334762573242,0.10120868682861328,0.0,17.75,,,,,,,,,,,,,,,,,,,,,,,,,,,,,,,,,,,,,,,,,,,,,,,,,,,,,,,
0.0,-4.099811974356271e-07,1.7998192310333252,0.18365126848220825,-3.7728991628682707e-06,-0.3735142946243286,-0.12322062253952026,-1.5728803646197775e-06,-0.25485891103744507,-0.050016969442367554,0.0,1.811385154724121,-0.17917156219482422,-0.19175104796886444,14.75,0.0,1.260995864868164,0.4438161849975586,-0.3835020959377289,21.25,0.0,1.39617919921875,0.4831552505493164,-0.3835020959377289,13.0,0.0,1.754164695739746,-0.2295970916748047,0.0,15.25,,,,,,,,,,,,,,,,,,,,,,,,,,,,,,,,,,,,,,,,,,,,,,,,,,,,,,,,,,,,,,,,,
0.0,-6.809470391999639e-07,1.7344341278076172,0.18617448210716248,-3.6908113543177024e-06,-0.41236957907676697,-0.09678953886032104,-1.4137458492768928e-06,-0.24396759271621704,-0.019767897203564644,0.0,1.7799139022827148,-1.1243820190429688,-0.19175104796886444,14.25,0.0,1.8045902252197266,-1.1544227600097656,-0.19175104796886444,14.75,0.0,1.225590705871582,0.15878677368164062,-0.3835020959377289,23.25,0.0,1.2549161911010742,0.18775463104248047,-0.19175104796886444,27.25,0.0,1.2860298156738281,0.21708011627197266,-0.19175104796886444,23.75,0.0,1.9751787185668945,-1.1365413665771484,0.0,14.0,0.0,1.760244369506836,-0.1723766326904297,0.0,14.0,,,,,,,,,,,,,,,,,,,,,,,,,,,,,,,,,,,,,,,,,,,,,,,,,,
0.0,-8.669417184137274e-07,1.6580486297607422,0.2012251317501068,-3.506052735247067e-06,-0.4556942582130432,-0.049873583018779755,-1.2085322396160336e-06,-0.23338991403579712,0.02578802965581417,0.0,1.851797103881836,-1.106858253479004,-0.19175104796886444,13.0,0.0,1.911163330078125,-1.072525978088379,-0.19175104796886444,16.75,0.0,1.9437074661254883,-1.1565685272216797,-0.5752531439065933,13.25,0.0,0.9090900421142578,0.10943412780761719,-0.3835020959377289,20.0,0.0,1.1576414108276367,0.2117156982421875,-0.19175104796886444,26.75,0.0,1.2191534042358398,0.2818107604980469,-0.19175104796886444,19.25,0.0,1.8943548202514648,-1.2363195419311523,0.0,14.0,0.0,1.7580986022949219,-0.17917156219482422,0.0,14.5,0.0,1.2105703353881836,0.5468130111694336,0.0,21.75,,,,,,,,,,,,,,,,,,,,,,,,,,,,,,,,,,,,,,,,
0.0,-9.288189630751731e-07,1.5751197338104248,0.33043551445007324,-3.2527075291000074e-06,-0.48450422286987305,0.19320431351661682,-1.0110370567417704e-06,-0.1880229413509369,0.23848944902420044,0.0,1.810312271118164,-1.0142326354980469,0.19175104796886444,14.0,0.0,1.8199682235717773,-1.1054277420043945,0.19175104796886444,14.5,0.0,0.8983612060546875,0.17631053924560547,-0.19175104796886444,16.0,0.0,1.1469125747680664,0.4495382308959961,-0.19175104796886444,28.0,0.0,1.1408329010009766,0.4992485046386719,-0.19175104796886444,31.25,0.0,1.1501312255859375,0.537872314453125,-0.19175104796886444,25.75,0.0,1.7580986022949219,-0.2321004867553711,0.0,14.0,,,,,,,,,,,,,,,,,,,,,,,,,,,,,,,,,,,,,,,,,,,,,,,,,,
0.0,-9.9313865575823e-07,1.5180243253707886,0.32993727922439575,-2.9619138786074473e-06,-0.4827560484409332,0.19100072979927063,-7.682799036956567e-07,-0.13689284026622772,0.2255302220582962,0.0,1.5478134155273438,-0.8407831192016602,0.19175104796886444,13.0,0.0,1.8857717514038086,-1.0553598403930664,-0.19175104796886444,22.0,0.0,1.8063783645629883,-0.9444952011108398,-0.19175104796886444,20.25,0.0,1.9955635070800781,-1.0138750076293945,-0.19175104796886444,17.75,0.0,1.750946044921875,-0.7377862930297852,0.19175104796886444,18.5,0.0,1.28173828125,0.18203258514404297,-0.19175104796886444,19.25,0.0,1.1698007583618164,0.21529197692871094,-0.19175104796886444,19.75,0.0,1.2280941009521484,0.21207332611083984,-0.19175104796886444,22.5,0.0,1.7910003662109375,-1.0374784469604492,0.0,17.25,0.0,1.7459392547607422,-0.3619194030761719,0.0,14.25,,,,,,,,,,,,,,,,,,,,,,,,,,,,,,,,,,,
0.0,-9.594638186172233e-07,1.4700454473495483,0.39065584540367126,-2.57030114880763e-06,-0.41005080938339233,0.3077331781387329,-4.974450007466658e-07,0.03374393284320831,0.3311225473880768,0.0,1.9068717956542969,-1.0689496994018555,-0.19175104796886444,13.0,0.0,1.993417739868164,-1.0131597518920898,-0.19175104796886444,19.0,0.0,2.046346664428711,-0.9849071502685547,-0.19175104796886444,17.0,0.0,0.9019374847412109,0.1569986343383789,0.19175104796886444,17.0,0.0,1.147627830505371,0.2524852752685547,0.19175104796886444,24.75,0.0,1.1508464813232422,0.33867359161376953,0.19175104796886444,25.0,0.0,1.1665821075439453,0.47385692596435547,0.19175104796886444,19.5,0.0,2.046346664428711,-1.016378402709961,0.0,16.5,0.0,0.9069442749023438,0.12481212615966797,0.0,13.5,,,,,,,,,,,,,,,,,,,,,,,,,,,,,,,,,,,,,,,,
0.0,-8.905782351575908e-07,1.4834697246551514,0.2826858162879944,-2.1032176391599933e-06,-0.24632267653942108,0.13378264009952545,-1.722812896787218e-07,0.2619536519050598,0.18659651279449463,0.0,1.8349885940551758,-1.110076904296875,-0.19175104796886444,21.75,0.0,1.8589496612548828,-1.0932683944702148,-0.19175104796886444,24.75,0.0,1.8875598907470703,-1.1150836944580078,-0.19175104796886444,18.75,0.0,1.3439655303955078,-0.2542734146118164,0.19175104796886444,19.0,0.0,1.4251470565795898,-0.2911090850830078,0.19175104796886444,12.25,0.0,1.2845993041992188,-0.10442733764648438,0.19175104796886444,18.5,0.0,1.1233091354370117,0.24640560150146484,0.19175104796886444,16.25,0.0,1.9129514694213867,-1.0793209075927734,0.0,19.5,0.0,2.028822898864746,-1.0514259338378906,0.0,16.25,0.0,0.9065866470336914,0.12803077697753906,0.0,14.75,0.0,1.1605024337768555,0.18596649169921875,0.0,23.5,,,,,,,,,,,,,,,,,,,,,,,,,,,,,,
0.0,-7.124088483578817e-07,1.465704083442688,0.2453685849905014,-1.5721368527010782e-06,-0.13525326550006866,0.0833357572555542,1.5864048918956541e-07,0.4169458746910095,0.14624954760074615,0.0,1.7838478088378906,-1.0836124420166016,0.19175104796886444,16.5,0.0,1.850724220275879,-1.119375228881836,-0.19175104796886444,19.0,0.0,1.9322633743286133,-1.1354684829711914,-0.19175104796886444,14.25,0.0,1.431584358215332,-0.3572702407836914,-0.19175104796886444,12.5,0.0,1.3207197189331055,-0.21600723266601562,0.19175104796886444,20.0,0.0,1.2331008911132812,-0.00858306884765625,0.19175104796886444,22.5,0.0,1.1712312698364258,0.09763240814208984,0.19175104796886444,21.5,0.0,0.9090900421142578,0.10800361633300781,0.19175104796886444,13.75,0.0,1.0896921157836914,0.7724761962890625,0.19175104796886444,19.5,0.0,2.0227432250976562,-1.064300537109375,0.0,17.75,0.0,2.3217201232910156,-0.8200407028198242,0.0,12.0,0.0,0.9062290191650391,0.1291036605834961,0.0,15.5,0.0,1.1665821075439453,0.19919872283935547,0.0,25.0,0.0,1.1941194534301758,0.2728700637817383,0.0,26.5,0.0,1.246333122253418,0.34224987030029297,0.0,22.0,,,,,,,,,,
0.0,-7.043792038530228e-07,1.443999171257019,0.285179078578949,-1.34730828449392e-06,-0.08217999339103699,0.15584257245063782,2.8250843797650305e-07,0.4580448567867279,0.20209304988384247,0.0,1.5006065368652344,-0.8586645126342773,-0.19175104796886444,12.25,0.0,1.7033815383911133,-1.0024309158325195,0.19175104796886444,15.75,0.0,1.7827749252319336,-1.0889768600463867,0.19175104796886444,13.5,0.0,1.6400814056396484,-0.8543729782104492,-0.3835020959377289,15.0,0.0,1.146554946899414,0.13124942779541016,0.19175104796886444,19.5,0.0,1.200556755065918,0.4227161407470703,0.19175104796886444,21.0,0.0,1.2238025665283203,0.5857944488525391,0.19175104796886444,21.5,0.0,2.019524574279785,-1.0528564453125,0.0,16.75,0.0,1.3031959533691406,-0.005364418029785156,0.0,19.0,0.0,0.9073019027709961,0.12195110321044922,0.0,16.75,0.0,1.156926155090332,0.17452239990234375,0.0,24.5,0.0,1.1873245239257812,0.21600723266601562,0.0,25.25,,,,,,,,,,,,,,,,,,,,,,,,,
0.0,-6.217177315193112e-07,1.419337511062622,0.29731133580207825,-1.0309639719707775e-06,-0.02804606780409813,0.17864440381526947,4.5616258148584166e-07,0.5017926692962646,0.2132200002670288,0.0,1.568913459777832,-0.7470846176147461,0.19175104796886444,13.0,0.0,1.6787052154541016,-0.7710456848144531,0.19175104796886444,16.25,0.0,1.7663240432739258,-0.8879899978637695,0.19175104796886444,15.5,0.0,1.8864870071411133,-0.9720325469970703,0.19175104796886444,14.0,0.0,0.9094476699829102,0.10478496551513672,0.19175104796886444,12.5,0.0,1.1708736419677734,0.14162063598632812,0.19175104796886444,22.0,0.0,1.1862516403198242,0.17559528350830078,0.19175104796886444,22.75,0.0,1.2270212173461914,0.5117654800415039,0.19175104796886444,18.75,0.0,1.3064146041870117,0.017881393432617188,0.0,19.0,0.0,0.9073019027709961,0.1233816146850586,0.0,16.0,0.0,1.1544227600097656,0.17917156219482422,0.0,23.75,0.0,1.1816024780273438,0.28324127197265625,0.0,24.75,,,,,,,,,,,,,,,,,,,,,,,,,
0.0,-5.081710696686059e-07,1.3890390396118164,0.3672240972518921,-7.153117849156843e-07,0.003159085288643837,0.29442140460014343,6.190989552123938e-07,0.5140088796615601,0.30116939544677734,0.0,1.7684698104858398,-1.0410547256469727,0.7670041918754578,16.0,0.0,1.8514394760131836,-1.0578632354736328,0.19175104796886444,17.25,0.0,1.694798469543457,-0.868678092956543,0.3835020959377289,12.5,0.0,0.9058713912963867,0.13375282287597656,0.19175104796886444,16.0,0.0,1.200556755065918,0.26106834411621094,0.19175104796886444,27.25,0.0,1.2134313583374023,0.41985511779785156,0.19175104796886444,31.75,0.0,1.2116432189941406,0.5639791488647461,0.19175104796886444,30.25,0.0,1.2477636337280273,0.6587505340576172,0.19175104796886444,19.75,0.0,2.021312713623047,-1.0364055633544922,0.0,17.25,0.0,0.9012222290039062,0.16164779663085938,0.0,13.75,0.0,1.1680126190185547,0.2875328063964844,0.0,23.0,0.0,1.1991262435913086,0.39517879486083984,0.0,26.5,0.0,1.21307373046875,0.5335807800292969,0.0,25.75,,,,,,,,,,,,,,,,,,,,
0.0,-4.395409405333339e-07,1.3731623888015747,0.41794830560684204,-4.767623522639042e-07,0.03767888620495796,0.36229363083839417,7.279639930857229e-07,0.5101043581962585,0.3366875648498535,0.0,1.7244815826416016,-1.2066364288330078,0.9587552398443222,16.5,0.0,1.7473697662353516,-1.2660026550292969,0.5752531439065933,18.5,0.0,1.8031597137451172,-1.2831687927246094,0.19175104796886444,13.5,0.0,1.1991262435913086,0.2886056900024414,0.19175104796886444,22.75,0.0,1.215219497680664,0.4048347473144531,0.19175104796886444,27.25,0.0,1.2263059616088867,0.5114078521728516,0.19175104796886444,25.5,0.0,1.2978315353393555,0.5775690078735352,0.19175104796886444,15.0,0.0,1.9630193710327148,-1.1057853698730469,0.0,18.5,0.0,0.9037256240844727,0.1455545425415039,0.0,13.5,0.0,1.1876821517944336,0.2313852310180664,0.0,23.25,0.0,1.2180805206298828,0.30863285064697266,0.0,27.0,,,,,,,,,,,,,,,,,,,,,,,,,,,,,,
0.0,-3.27419996892786e-07,1.3835766315460205,0.38321995735168457,-1.8995908135366335e-07,0.11003373563289642,0.2774341404438019,8.630934189568507e-07,0.5371823310852051,0.23821792006492615,0.0,1.3689994812011719,-0.32651424407958984,0.19175104796886444,14.5,0.0,1.5056133270263672,-0.39768218994140625,0.19175104796886444,12.0,0.0,1.1751651763916016,0.1766681671142578,0.19175104796886444,20.75,0.0,1.1783838272094727,0.13554096221923828,0.19175104796886444,20.5,0.0,1.2774467468261719,0.7159709930419922,0.19175104796886444,14.0,0.0,1.1504888534545898,0.7799863815307617,0.19175104796886444,20.5,0.0,1.966238021850586,-1.111149787902832,0.0,18.5,0.0,1.1926889419555664,0.20956993103027344,0.0,21.5,,,,,,,,,,,,,,,,,,,,,,,,,,,,,,,,,,,,,,,,,,,,,
0.0,-2.6819699883162684e-07,1.390275478363037,0.38980841636657715,-3.801673642556125e-09,0.15584316849708557,0.26354900002479553,9.264628033633926e-07,0.5281526446342468,0.20488861203193665,0.0,1.8718242645263672,-1.2087821960449219,0.19175104796886444,14.25,0.0,1.8231868743896484,-1.0396242141723633,0.19175104796886444,17.25,0.0,1.8500089645385742,-1.1082887649536133,0.19175104796886444,19.0,0.0,1.2634992599487305,0.1659393310546875,0.19175104796886444,15.5,0.0,1.3096332550048828,0.25069713592529297,0.19175104796886444,22.5,0.0,1.3235807418823242,0.35119056701660156,0.19175104796886444,23.5,0.0,1.3693571090698242,0.47457218170166016,0.19175104796886444,16.5,0.0,1.6955137252807617,-0.8207559585571289,0.0,13.75,,,,,,,,,,,,,,,,,,,,,,,,,,,,,,,,,,,,,,,,,,,,,
0.0,-2.1728817500843434e-07,1.4112451076507568,0.34681403636932373,1.5461617408618622e-07,0.21976450085639954,0.1649993658065796,9.686240218798048e-07,0.535183310508728,0.10143955796957016,0.0,1.8149614334106445,-0.996708869934082,-0.19175104796886444,18.75,0.0,1.878976821899414,-1.0542869567871094,0.3835020959377289,20.0,0.0,1.7502307891845703,-0.7950067520141602,0.19175104796886444,14.5,0.0,1.959085464477539,-1.0578632354736328,0.3835020959377289,15.25,0.0,1.3350248336791992,0.0057220458984375,0.19175104796886444,15.75,0.0,1.249551773071289,0.10764598846435547,0.19175104796886444,14.5,0.0,1.283884048461914,0.06473064422607422,0.19175104796886444,19.5,0.0,1.976609230041504,-1.0868310928344727,0.0,18.0,0.0,1.719832420349121,-0.8368492126464844,0.0,14.75,,,,,,,,,,,,,,,,,,,,,,,,,,,,,,,,,,,,,,,,
0.0,-1.6128657875924546e-07,1.4122002124786377,0.36055153608322144,2.9853018190806324e-07,0.23418568074703217,0.16831520199775696,9.973319947675918e-07,0.4911869764328003,0.09212905168533325,0.0,1.7788410186767578,-1.1025667190551758,-0.19175104796886444,15.25,0.0,1.7763376235961914,-0.8876323699951172,-0.19175104796886444,18.0,0.0,1.7448663711547852,-0.7688999176025391,-0.19175104796886444,16.25,0.0,1.233816146850586,0.24569034576416016,0.19175104796886444,18.75,0.0,1.2509822845458984,0.2957582473754883,0.19175104796886444,24.25,0.0,1.2649297714233398,0.3858804702758789,0.19175104796886444,22.0,0.0,1.7316341400146484,-0.8450746536254883,0.0,15.0,,,,,,,,,,,,,,,,,,,,,,,,,,,,,,,,,,,,,,,,,,,,,,,,,,
0.0,-9.94197293380239e-08,1.4639697074890137,0.2837173640727997,4.3639704472298035e-07,0.3157849907875061,0.017555177211761475,1.0240042911391356e-06,0.5044889450073242,-0.04630240797996521,0.0,1.8239021301269531,-0.8679628372192383,0.5752531439065933,16.5,0.0,1.9276142120361328,-0.8475780487060547,0.5752531439065933,14.0,0.0,1.6779899597167969,-0.5822181701660156,0.3835020959377289,12.75,0.0,1.397252082824707,0.10371208190917969,0.19175104796886444,18.25,0.0,1.508474349975586,0.13554096221923828,0.19175104796886444,21.5,0.0,1.468062400817871,0.20635128021240234,0.19175104796886444,23.5,0.0,1.7216205596923828,-0.7857084274291992,0.0,15.5,0.0,1.829981803894043,-0.9469985961914062,0.0,20.0,,,,,,,,,,,,,,,,,,,,,,,,,,,,,,,,,,,,,,,,,,,,,
0.0,-4.459145941382303e-08,1.5160059928894043,0.1721002608537674,5.4807031801829e-07,0.38962507247924805,-0.17494846880435944,1.0317477290300303e-06,0.509270966053009,-0.20602765679359436,0.0,1.931905746459961,-1.077890396118164,0.19175104796886444,14.0,0.0,1.9623041152954102,-1.2034177780151367,0.19175104796886444,13.25,0.0,1.497030258178711,-0.38444995880126953,0.19175104796886444,14.5,0.0,1.4476776123046875,-0.2911090850830078,0.19175104796886444,15.5,0.0,1.3926029205322266,-0.058650970458984375,0.3835020959377289,12.75,0.0,1.6994476318359375,-0.8307695388793945,0.0,12.75,0.0,1.8546581268310547,-0.9605884552001953,0.0,19.5,,,,,,,,,,,,,,,,,,,,,,,,,,,,,,,,,,,,,,,,,,,,,,,,,,
0.0,9.068991779770386e-09,1.5611753463745117,0.0771041139960289,6.431285441976797e-07,0.43836337327957153,-0.3202098608016968,1.0273518000758486e-06,0.4906541109085083,-0.31088417768478394,0.0,1.5102624893188477,-0.14734268188476562,0.3835020959377289,23.75,0.0,1.5263557434082031,-0.2067089080810547,0.3835020959377289,23.25,0.0,1.6139745712280273,-0.18417835235595703,0.3835020959377289,14.0,0.0,1.4473199844360352,-0.011086463928222656,0.19175104796886444,16.5,0.0,1.8546581268310547,-1.0979175567626953,0.0,22.25,0.0,1.8703937530517578,-0.9698867797851562,0.0,19.75,,,,,,,,,,,,,,,,,,,,,,,,,,,,,,,,,,,,,,,,,,,,,,,,,,,,,,,
0.0,6.73363587111453e-08,1.595528244972229,0.08539530634880066,7.309782859010738e-07,0.48646754026412964,-0.28502529859542847,1.0172685733778053e-06,0.5093228220939636,-0.2567727565765381,0.0,1.8360614776611328,-1.2917518615722656,0.19175104796886444,12.25,0.0,1.4405250549316406,0.18846988677978516,0.5752531439065933,13.5,0.0,1.4666318893432617,0.22280216217041016,0.5752531439065933,19.0,0.0,3.142833709716797,0.3415346145629883,0.5752531439065933,14.75,0.0,3.173232078552246,0.40018558502197266,0.5752531439065933,13.25,0.0,1.4812946319580078,0.29468536376953125,0.5752531439065933,16.75,0.0,1.8718242645263672,-1.2170076370239258,0.0,16.5,0.0,1.852869987487793,-1.0911226272583008,0.0,20.5,0.0,1.8764734268188477,-0.9266138076782227,0.0,19.25,0.0,1.5020370483398438,-0.05221366882324219,0.0,18.25,0.0,1.4129877090454102,0.06508827209472656,0.0,21.25,0.0,1.2434720993041992,0.1856088638305664,0.0,15.25,0.0,1.306772232055664,0.20992755889892578,0.0,20.25,,,,,,,,,,,,,,,,,,,,
0.0,1.2652657233047648e-07,1.648454189300537,0.020664013922214508,8.086178695521085e-07,0.5430489182472229,-0.3673155903816223,1.0029878012574045e-06,0.5150996446609497,-0.30363351106643677,0.0,1.580357551574707,-0.17380714416503906,0.5752531439065933,14.25,0.0,1.591801643371582,-0.15592575073242188,0.5752531439065933,17.0,0.0,1.8646717071533203,-1.0753870010375977,0.0,19.5,0.0,1.9032955169677734,-1.199483871459961,0.0,15.75,0.0,1.8678903579711914,-0.9180307388305664,0.0,18.75,0.0,1.427292823791504,0.054001808166503906,0.0,21.5,0.0,1.2595653533935547,0.17273426055908203,0.0,13.75,0.0,1.3275146484375,0.21064281463623047,0.0,19.5,,,,,,,,,,,,,,,,,,,,,,,,,,,,,,,,,,,,,,,,,,,,,
0.0,1.7035901578310586e-07,1.6981028318405151,-0.05769512429833412,8.552185022381309e-07,0.5740351676940918,-0.4604048728942871,9.69648112914001e-07,0.48399877548217773,-0.35462749004364014,0.0,1.6279220581054688,-0.23281574249267578,0.3835020959377289,14.75,0.0,1.661539077758789,-0.2124309539794922,0.5752531439065933,21.25,0.0,1.6787052154541016,-0.1938343048095703,0.5752531439065933,19.0,0.0,1.8568038940429688,-1.0886192321777344,0.0,19.25,0.0,1.9186735153198242,-1.193404197692871,0.0,15.5,0.0,1.855015754699707,-0.8929967880249023,0.0,18.75,0.0,1.454472541809082,0.01823902130126953,0.0,20.5,0.0,1.3614892959594727,0.16736984252929688,0.0,17.5,,,,,,,,,,,,,,,,,,,,,,,,,,,,,,,,,,,,,,,,,,,,,
0.0,1.972932039961961e-07,1.8015947341918945,-0.2965121269226074,8.758257195040642e-07,0.6502686738967896,-0.7890175580978394,9.267983500649279e-07,0.4724555015563965,-0.5859220027923584,0.0,1.9583702087402344,-1.1833906173706055,0.5752531439065933,13.5,0.0,1.8821954727172852,-0.9477138519287109,0.5752531439065933,18.25,0.0,1.8285512924194336,-0.8014440536499023,0.7670041918754578,18.0,0.0,1.8028020858764648,-0.5915164947509766,0.7670041918754578,15.75,0.0,1.8718242645263672,-1.0442733764648438,0.0,19.5,0.0,1.9276142120361328,-1.2009143829345703,0.0,15.75,0.0,1.8460750579833984,-0.8772611618041992,0.0,19.5,0.0,1.554250717163086,-0.15807151794433594,0.0,19.0,0.0,1.4609098434448242,0.04398822784423828,0.0,20.5,0.0,1.335740089416504,0.25963783264160156,0.0,17.5,,,,,,,,,,,,,,,,,,,,,,,,,,,,,,,,,,,
0.0,2.2830784018879058e-07,1.8553272485733032,-0.35734936594963074,8.904981427804159e-07,0.6443271636962891,-0.7983975410461426,8.76274611982808e-07,0.3911139965057373,-0.5338737368583679,0.0,1.9540786743164062,-0.8876323699951172,0.7670041918754578,18.25,0.0,1.8982887268066406,-0.6777048110961914,0.7670041918754578,12.75,0.0,1.7101764678955078,0.035762786865234375,0.3835020959377289,13.0,0.0,1.772761344909668,-0.03933906555175781,0.3835020959377289,13.25,0.0,3.365635871887207,0.2206563949584961,0.3835020959377289,13.0,0.0,3.41641902923584,0.13768672943115234,0.3835020959377289,13.25,0.0,1.9522905349731445,-1.2534856796264648,0.0,15.5,0.0,1.9154548645019531,-1.026749610900879,0.0,16.25,,,,,,,,,,,,,,,,,,,,,,,,,,,,,,,,,,,,,,,,,,,,,
0.0,2.3407037019751442e-07,1.930841326713562,-0.3585876226425171,8.679214147377934e-07,0.650896430015564,-0.701351523399353,8.051841859924025e-07,0.31591928005218506,-0.39413726329803467,0.0,2.2122859954833984,-1.2091398239135742,0.19175104796886444,13.25,0.0,2.007722854614258,-0.7535219192504883,0.9587552398443222,21.25,0.0,2.0971298217773438,-0.9312629699707031,0.9587552398443222,13.75,0.0,1.739501953125,0.26428699493408203,0.3835020959377289,13.5,0.0,1.7802715301513672,0.36334991455078125,0.3835020959377289,17.0,0.0,1.8743276596069336,0.4105567932128906,0.3835020959377289,14.5,0.0,1.9719600677490234,-1.1969804763793945,0.0,15.25,0.0,1.8110275268554688,-0.9101629257202148,0.0,15.25,0.0,1.9397735595703125,-1.0010004043579102,0.0,17.5,,,,,,,,,,,,,,,,,,,,,,,,,,,,,,,,,,,,,,,,
0.0,2.924199122844584e-07,1.9973355531692505,-0.457145094871521,9.083026384359982e-07,0.6564299464225769,-0.7711113691329956,7.801567676324339e-07,0.26854079961776733,-0.4104517996311188,0.0,2.1511316299438477,-0.9316205978393555,0.5752531439065933,12.75,0.0,2.054572105407715,-0.7456541061401367,0.5752531439065933,14.5,,,,,,,,,,,,,,,,,,,,,,,,,,,,,,,,,,,,,,,,,,,,,,,,,,,,,,,,,,,,,,,,,,,,,,,,,,,
0.0,3.652790780961368e-07,2.0657598972320557,-0.5528784990310669,9.591411753717694e-07,0.6609011292457581,-0.8258647322654724,7.629617471138772e-07,0.225845068693161,-0.412272572517395,0.0,2.3059844970703125,-1.1469125747680664,0.3835020959377289,12.25,0.0,1.565694808959961,1.077890396118164,0.3835020959377289,16.0,0.0,1.6139745712280273,1.050710678100586,0.3835020959377289,16.25,,,,,,,,,,,,,,,,,,,,,,,,,,,,,,,,,,,,,,,,,,,,,,,,,,,,,,,,,,,,,,,,,,,,,,
0.0,4.887271529696591e-07,2.1595969200134277,-0.7269802689552307,9.380314622831065e-07,0.5580974817276001,-0.8309332728385925,-6.088823312211389e-08,-0.1745317578315735,0.06110229343175888,0.0,2.1604299545288086,-1.3178586959838867,0.19175104796886444,14.25,0.0,2.1257400512695312,-0.9448528289794922,0.19175104796886444,15.25,0.0,2.006649971008301,0.3222227096557617,0.3835020959377289,19.75,0.0,1.9254684448242188,0.3293752670288086,0.3835020959377289,18.0,0.0,1.947641372680664,0.3426074981689453,0.3835020959377289,22.25,0.0,2.191901206970215,-1.256704330444336,0.0,13.75,0.0,2.078533172607422,-1.1000633239746094,0.0,14.5,,,,,,,,,,,,,,,,,,,,,,,,,,,,,,,,,,,,,,,,,,,,,,,,,,
0.0,5.046769047112321e-07,2.221736192703247,-0.8019564151763916,8.449071060567803e-07,0.5486847162246704,-0.812584638595581,-1.1086039819474536e-07,-0.16995869576931,0.07109903544187546,0.0,2.2269487380981445,-0.7535219192504883,0.7670041918754578,18.5,0.0,2.362847328186035,-0.7935762405395508,0.7670041918754578,15.25,0.0,2.0896196365356445,0.2728700637817383,0.3835020959377289,17.25,0.0,1.9805431365966797,0.3933906555175781,0.3835020959377289,15.25,0.0,2.196192741394043,-1.2295246124267578,0.0,14.5,,,,,,,,,,,,,,,,,,,,,,,,,,,,,,,,,,,,,,,,,,,,,,,,,,,,,,,,,,,,
0.0,4.7390761892529554e-07,2.2636184692382812,-0.8730122447013855,7.057662969600642e-07,0.4825218915939331,-0.770569384098053,-1.84510085432521e-07,-0.2429201602935791,0.11474557220935822,0.0,2.253413200378418,-1.502394676208496,0.3835020959377289,16.0,0.0,2.2509098052978516,-0.7617473602294922,0.5752531439065933,21.25,0.0,2.375364303588867,-0.7023811340332031,0.5752531439065933,18.5,0.0,1.9551515579223633,0.9344816207885742,0.3835020959377289,14.0,0.0,2.227306365966797,-1.124739646911621,0.0,15.25,0.0,2.167224884033203,-0.9502172470092773,0.0,19.25,,,,,,,,,,,,,,,,,,,,,,,,,,,,,,,,,,,,,,,,,,,,,,,,,,,,,,,
0.0,5.049581659477553e-07,2.3096237182617188,-0.9191803336143494,6.449320721912954e-07,0.4462241530418396,-0.7103266716003418,-2.0865644501100178e-07,-0.2654185891151428,0.15667037665843964,0.0,2.386808395385742,-0.6966590881347656,0.3835020959377289,13.0,0.0,2.2455453872680664,-1.0854005813598633,0.0,15.25,0.0,2.1865367889404297,-0.8640289306640625,0.0,19.75,,,,,,,,,,,,,,,,,,,,,,,,,,,,,,,,,,,,,,,,,,,,,,,,,,,,,,,,,,,,,,,,,,,,,,
0.0,4.855062343267491e-07,2.3580222129821777,-0.9241804480552673,5.347463343241543e-07,0.3914574980735779,-0.5847720503807068,-2.5895874955494946e-07,-0.3273085057735443,0.25545167922973633,0.0,2.5774240493774414,-0.9262561798095703,0.19175104796886444,15.25,0.0,2.5048255920410156,-0.6247758865356445,0.19175104796886444,15.25,0.0,2.218008041381836,-0.8507966995239258,0.0,20.25,0.0,2.293109893798828,-1.0181665420532227,0.0,16.25,,,,,,,,,,,,,,,,,,,,,,,,,,,,,,,,,,,,,,,,,,,,,,,,,,,,,,,,,,,,,,,,,
0.0,4.950737775288871e-07,2.3976290225982666,-0.9892380237579346,4.64407662548183e-07,0.3432539403438568,-0.5585066080093384,-2.8324467393758823e-07,-0.357063889503479,0.26576104760169983,0.0,2.6224851608276367,-1.2298822402954102,0.19175104796886444,12.25,0.0,2.316713333129883,-0.9931325912475586,0.0,17.75,0.0,2.2269487380981445,-0.7699728012084961,0.0,21.25,,,,,,,,,,,,,,,,,,,,,,,,,,,,,,,,,,,,,,,,,,,,,,,,,,,,,,,,,,,,,,,,,,,,,,
0.0,4.943734097651031e-07,2.4447929859161377,-1.0276726484298706,3.895726194969029e-07,0.3115174472332001,-0.5031384229660034,-3.081429724716145e-07,-0.3699438273906708,0.2932087182998657,0.0,2.761960029602051,-1.006007194519043,0.19175104796886444,13.75,,,,,,,,,,,,,,,,,,,,,,,,,,,,,,,,,,,,,,,,,,,,,,,,,,,,,,,,,,,,,,,,,,,,,,,,,,,,,,,,
0.0,5.504429054781212e-07,2.589310884475708,-1.117826223373413,2.7644122724268527e-07,0.29697316884994507,-0.3520691394805908,-4.040598611254609e-08,-0.003918968141078949,0.0821722149848938,0.0,2.81524658203125,-0.7463693618774414,0.19175104796886444,12.5,,,,,,,,,,,,,,,,,,,,,,,,,,,,,,,,,,,,,,,,,,,,,,,,,,,,,,,,,,,,,,,,,,,,,,,,,,,,,,,,
0.0,4.37040995393545e-07,2.7195167541503906,-0.9820938110351562,1.4651932644937915e-07,0.42244958877563477,-0.1702808290719986,-9.979320481079412e-08,0.08424102514982224,0.1748148500919342,0.0,2.910733222961426,-0.6841421127319336,0.19175104796886444,14.5,0.0,2.751946449279785,-0.5203485488891602,0.7670041918754578,16.25,0.0,1.9848346710205078,1.3614892959594727,0.3835020959377289,14.0,0.0,1.8582344055175781,1.6461610794067383,0.3835020959377289,12.25,,,,,,,,,,,,,,,,,,,,,,,,,,,,,,,,,,,,,,,,,,,,,,,,,,,,,,,,,,,,,,,,,
0.0,3.9547029473396833e-07,2.807889699935913,-0.9733606576919556,-4.865862024416856e-08,0.06164771318435669,0.019369805231690407,-2.245591979033179e-08,0.04868341609835625,0.005345507524907589,0.0,2.9668807983398438,-0.9173154830932617,0.19175104796886444,15.25,0.0,2.533435821533203,0.43594837188720703,0.3835020959377289,14.75,,,,,,,,,,,,,,,,,,,,,,,,,,,,,,,,,,,,,,,,,,,,,,,,,,,,,,,,,,,,,,,,,,,,,,,,,,,
0.0,3.5249243524049234e-07,2.8323400020599365,-0.9055045247077942,-8.657637096121107e-08,0.10980556905269623,0.08394922316074371,-4.002449571771649e-08,0.09888827055692673,0.03456197306513786,0.0,2.7229785919189453,-0.40161609649658203,0.3835020959377289,12.25,0.0,2.9085874557495117,-0.9301900863647461,0.0,14.0,0.0,2.8259754180908203,-0.812530517578125,0.0,16.0,,,,,,,,,,,,,,,,,,,,,,,,,,,,,,,,,,,,,,,,,,,,,,,,,,,,,,,,,,,,,,,,,,,,,,
0.0,2.6390139851173444e-07,2.942732810974121,-0.8264179229736328,-1.64199747132443e-07,0.29183459281921387,0.14601576328277588,-7.573685678607944e-08,0.27023351192474365,0.049131423234939575,0.0,2.9168128967285156,-0.6963014602661133,0.5752531439065933,12.75,0.0,3.0187368392944336,-0.7853507995605469,0.5752531439065933,15.75,0.0,3.088831901550293,-0.7796287536621094,0.5752531439065933,13.0,,,,,,,,,,,,,,,,,,,,,,,,,,,,,,,,,,,,,,,,,,,,,,,,,,,,,,,,,,,,,,,,,,,,,,
0.0,2.2886561623636226e-07,2.9634597301483154,-0.8052895665168762,-1.9479479362871643e-07,0.30427318811416626,0.16934193670749664,-8.998834744033957e-08,0.2668091058731079,0.06459712982177734,0.0,3.1360387802124023,-0.7288455963134766,0.19175104796886444,13.75,0.0,3.065943717956543,-0.6977319717407227,0.19175104796886444,14.75,0.0,2.8957128524780273,-0.6766319274902344,0.0,18.5,0.0,2.979755401611328,-0.8221864700317383,0.0,17.25,,,,,,,,,,,,,,,,,,,,,,,,,,,,,,,,,,,,,,,,,,,,,,,,,,,,,,,,,,,,,,,,,
0.0,2.2886561623636226e-07,2.9634597301483154,-0.8052895665168762,-1.9479479362871643e-07,0.30427318811416626,0.16934193670749664,-8.998834744033957e-08,0.2668091058731079,0.06459712982177734,0.0,2.904653549194336,-0.6619691848754883,0.0,18.5,0.0,3.0001401901245117,-0.7696151733398438,0.0,19.0,0.0,2.7551651000976562,-0.13267993927001953,0.0,16.25,,,,,,,,,,,,,,,,,,,,,,,,,,,,,,,,,,,,,,,,,,,,,,,,,,,,,,,,,,,,,,,,,,,,,,
0.0,1.991729021710853e-07,2.9978041648864746,-0.7947909832000732,-2.21120359356064e-07,0.3589728772640228,0.1774805337190628,-1.023546758460725e-07,0.31694403290748596,0.06610771268606186,0.0,3.074169158935547,-0.9033679962158203,0.5752531439065933,13.5,0.0,3.1474828720092773,-0.8711814880371094,0.5752531439065933,15.25,0.0,2.6650428771972656,0.29397010803222656,0.0,15.75,,,,,,,,,,,,,,,,,,,,,,,,,,,,,,,,,,,,,,,,,,,,,,,,,,,,,,,,,,,,,,,,,,,,,,
0.0,1.8851791594443057e-07,3.007974147796631,-0.7888084650039673,-2.3026323958674766e-07,0.3614286184310913,0.18452729284763336,-1.0656818716370253e-07,0.3093886375427246,0.07174084335565567,0.0,3.2247304916381836,-0.7188320159912109,0.19175104796886444,15.25,,,,,,,,,,,,,,,,,,,,,,,,,,,,,,,,,,,,,,,,,,,,,,,,,,,,,,,,,,,,,,,,,,,,,,,,,,,,,,,,
0.0,1.8851791594443057e-07,3.007974147796631,-0.7888084650039673,-2.3026323958674766e-07,0.3614286184310913,0.18452729284763336,-1.0656818716370253e-07,0.3093886375427246,0.07174084335565567,0.0,2.707958221435547,0.619053840637207,-0.19175104796886444,17.25,,,,,,,,,,,,,,,,,,,,,,,,,,,,,,,,,,,,,,,,,,,,,,,,,,,,,,,,,,,,,,,,,,,,,,,,,,,,,,,,
0.0,1.7898079818223778e-07,3.0170347690582275,-0.7862350940704346,-2.384124968557444e-07,0.36268022656440735,0.1879233568906784,-1.1031053759325005e-07,0.3011697828769684,0.07524492591619492,0.0,3.2286643981933594,-0.779271125793457,0.19175104796886444,12.25,0.0,2.5752782821655273,0.5714893341064453,-0.19175104796886444,12.0,0.0,2.6013851165771484,0.6630420684814453,-0.19175104796886444,12.5,0.0,2.524852752685547,0.46384334564208984,0.0,12.25,,,,,,,,,,,,,,,,,,,,,,,,,,,,,,,,,,,,,,,,,,,,,,,,,,,,,,,,,,,,,,,,,
0.0,1.7898079818223778e-07,3.0170347690582275,-0.7862350940704346,-2.384124968557444e-07,0.36268022656440735,0.1879233568906784,-1.1031053759325005e-07,0.3011697828769684,0.07524492591619492,0.0,2.6106834411621094,0.6126165390014648,-0.19175104796886444,13.75,0.0,2.664327621459961,0.8965730667114258,-0.19175104796886444,14.5,0.0,2.529144287109375,0.4774332046508789,0.0,12.5,,,,,,,,,,,,,,,,,,,,,,,,,,,,,,,,,,,,,,,,,,,,,,,,,,,,,,,,,,,,,,,,,,,,,,
0.0,1.7898079818223778e-07,3.0170347690582275,-0.7862350940704346,-2.384124968557444e-07,0.36268022656440735,0.1879233568906784,-1.1031053759325005e-07,0.3011697828769684,0.07524492591619492,0.0,2.532362937927246,0.5636215209960938,-0.19175104796886444,13.25,0.0,2.536296844482422,0.4495382308959961,0.0,12.75,0.0,2.601742744445801,0.492095947265625,0.0,20.5,,,,,,,,,,,,,,,,,,,,,,,,,,,,,,,,,,,,,,,,,,,,,,,,,,,,,,,,,,,,,,,,,,,,,,
0.0,1.7898079818223778e-07,3.0170347690582275,-0.7862350940704346,-2.384124968557444e-07,0.36268022656440735,0.1879233568906784,-1.1031053759325005e-07,0.3011697828769684,0.07524492591619492,0.0,2.496957778930664,0.6108283996582031,-0.19175104796886444,17.5,0.0,2.5305747985839844,0.6262063980102539,-0.19175104796886444,24.5,0.0,2.5337934494018555,0.664830207824707,-0.19175104796886444,22.5,0.0,3.1042098999023438,-0.7288455963134766,0.0,16.0,0.0,3.1839609146118164,-0.8075237274169922,0.0,16.75,,,,,,,,,,,,,,,,,,,,,,,,,,,,,,,,,,,,,,,,,,,,,,,,,,,,,,,,,,,,
0.0,1.7898079818223778e-07,3.0170347690582275,-0.7862350940704346,-2.384124968557444e-07,0.36268022656440735,0.1879233568906784,-1.1031053759325005e-07,0.3011697828769684,0.07524492591619492,0.0,2.4951696395874023,0.6676912307739258,-0.19175104796886444,17.25,0.0,2.5177001953125,0.6895065307617188,-0.19175104796886444,13.75,0.0,3.2175779342651367,-0.765681266784668,0.0,17.0,0.0,3.108859062194824,-0.6862878799438477,0.0,14.5,0.0,3.2873153686523438,-0.6966590881347656,0.0,12.5,,,,,,,,,,,,,,,,,,,,,,,,,,,,,,,,,,,,,,,,,,,,,,,,,,,,,,,,,,,,
