tid,posx,posy,posz,velx,vely,velz,accx,accy,accz,pointx1,pointy1,pointz1,doppler1,snr1,pointx2,pointy2,pointz2,doppler2,snr2,pointx3,pointy3,pointz3,doppler3,snr3,pointx4,pointy4,pointz4,doppler4,snr4,pointx5,pointy5,pointz5,doppler5,snr5,pointx6,pointy6,pointz6,doppler6,snr6,pointx7,pointy7,pointz7,doppler7,snr7,pointx8,pointy8,pointz8,doppler8,snr8,pointx9,pointy9,pointz9,doppler9,snr9,pointx10,pointy10,pointz10,doppler10,snr10,pointx11,pointy11,pointz11,doppler11,snr11,pointx12,pointy12,pointz12,doppler12,snr12,pointx13,pointy13,pointz13,doppler13,snr13,pointx14,pointy14,pointz14,doppler14,snr14,pointx15,pointy15,pointz15,doppler15,snr15,pointx16,pointy16,pointz16,doppler16,snr16
0.0,0.031598687171936035,2.306570291519165,0.0052839587442576885,0.31460627913475037,-0.7094969749450684,0.01957586593925953,0.15405914187431335,-0.4709562659263611,0.017700256779789925,0.0,2.631068229675293,-1.2284517288208008,-0.3835020959377289,12.75,0.0,2.40325927734375,-0.28824806213378906,-0.5752531439065933,16.0,0.0,2.0592212677001953,0.0286102294921875,-0.5752531439065933,14.75,0.0,2.124667167663574,0.06008148193359375,-0.5752531439065933,26.25,0.0,2.143263816833496,0.06330013275146484,-0.5752531439065933,29.25,0.0,2.224445343017578,-0.038623809814453125,-0.5752531439065933,23.25,0.0,2.7337074279785156,-1.2534856796264648,0.0,12.75,0.0,2.68399715423584,-0.973820686340332,0.0,16.75,0.0,2.67791748046875,-0.17774105072021484,0.0,19.0,,,,,,,,,,,,,,,,,,,,,,,,,,,,,,,,,,,
0.0,0.04868730157613754,2.2551822662353516,0.005956773180514574,0.3154957592487335,-0.6785476803779602,0.02007889747619629,0.14787796139717102,-0.35065022110939026,0.017152870073914528,0.0,2.433657646179199,-0.4595518112182617,-0.3835020959377289,14.25,0.0,2.246975898742676,-0.15163421630859375,-0.3835020959377289,20.0,0.0,2.0856857299804688,0.17631053924560547,-0.3835020959377289,21.5,0.0,2.1250247955322266,0.1323223114013672,-0.3835020959377289,25.25,0.0,2.622842788696289,-1.1887550354003906,0.0,17.0,0.0,2.692580223083496,-1.3314485549926758,0.0,12.5,0.0,2.6557445526123047,-0.2117156982421875,0.0,17.25,,,,,,,,,,,,,,,,,,,,,,,,,,,,,,,,,,,,,,,,,,,,,
0.0,-0.0002654716372489929,2.224996328353882,0.006314472761005163,0.21754544973373413,-0.587996244430542,0.0202541071921587,0.06890331208705902,-0.16369150578975677,0.016511408612132072,0.0,2.509474754333496,-1.089334487915039,-0.3835020959377289,15.0,0.0,2.593874931335449,-1.1665821075439453,-0.3835020959377289,14.0,0.0,2.4261474609375,-0.4963874816894531,-0.3835020959377289,16.5,0.0,2.2623538970947266,-0.22995471954345703,-0.3835020959377289,21.75,0.0,2.0148754119873047,-0.16880035400390625,-0.19175104796886444,14.5,0.0,2.0742416381835938,-0.1398324966430664,-0.19175104796886444,22.5,0.0,2.1425485610961914,-0.060439109802246094,-0.19175104796886444,25.5,0.0,2.6088953018188477,-1.1969804763793945,0.0,16.0,0.0,2.651095390319824,-0.15091896057128906,0.0,18.0,,,,,,,,,,,,,,,,,,,,,,,,,,,,,,,,,,,
0.0,-0.07795652747154236,2.1769087314605713,0.006303209811449051,0.06680665910243988,-0.5746433138847351,0.01968124695122242,-0.0538526326417923,-0.12472403049468994,0.015454879030585289,0.0,2.4733543395996094,-1.142263412475586,-1.342257335782051,14.5,0.0,2.4061203002929688,-0.7817745208740234,-0.5752531439065933,14.75,0.0,2.0999908447265625,-0.22995471954345703,-0.5752531439065933,26.25,0.0,2.2155046463012695,-0.2753734588623047,-0.7670041918754578,19.25,0.0,2.018451690673828,-0.15664100646972656,-0.3835020959377289,14.5,0.0,2.0695924758911133,-0.18703937530517578,-0.3835020959377289,22.5,0.0,2.583146095275879,-1.2631416320800781,0.0,15.0,,,,,,,,,,,,,,,,,,,,,,,,,,,,,,,,,,,,,,,,,,,,,
0.0,-0.2111067920923233,2.1484432220458984,0.006401922553777695,-0.16593940556049347,-0.5162179470062256,0.019262194633483887,-0.23459266126155853,-0.030473537743091583,0.01454703789204359,0.0,2.3342370986938477,-1.2352466583251953,-0.19175104796886444,15.0,0.0,2.364993095397949,-1.0617971420288086,-0.19175104796886444,17.75,0.0,2.281665802001953,-0.7592439651489258,-0.5752531439065933,14.25,0.0,1.9565820693969727,-0.2557039260864258,-0.3835020959377289,13.75,0.0,1.9876956939697266,-0.2810955047607422,-0.3835020959377289,19.75,0.0,2.066373825073242,-0.28073787689208984,-0.3835020959377289,16.75,0.0,2.5817155838012695,-1.227736473083496,0.0,14.75,0.0,2.5920867919921875,-0.6322860717773438,0.0,16.0,0.0,2.0252466201782227,-0.11265277862548828,0.0,12.0,,,,,,,,,,,,,,,,,,,,,,,,,,,,,,,,,,,
0.0,-0.3252592086791992,2.0977983474731445,0.005938190035521984,-0.3405410349369049,-0.5542831420898438,0.017939727753400803,-0.34958207607269287,-0.10153808444738388,0.013159038498997688,0.0,2.175450325012207,-1.2316703796386719,-0.9587552398443222,21.5,0.0,2.156853675842285,-1.090407371520996,-0.9587552398443222,21.75,0.0,2.289891242980957,-1.2280941009521484,-0.9587552398443222,14.5,0.0,1.965165138244629,-0.08940696716308594,-0.3835020959377289,21.75,0.0,1.9823312759399414,-0.09369850158691406,-0.3835020959377289,25.0,0.0,2.067446708679199,-0.13303756713867188,-0.3835020959377289,22.25,0.0,2.6303529739379883,-1.1515617370605469,0.0,15.75,,,,,,,,,,,,,,,,,,,,,,,,,,,,,,,,,,,,,,,,,,,,,
0.0,-0.3101328909397125,2.064208507537842,0.005923869553953409,-0.29045164585113525,-0.5264973044395447,0.017244379967451096,-0.28253716230392456,-0.05544058978557587,0.012202614918351173,0.0,2.2913217544555664,-0.8518695831298828,-0.3835020959377289,12.0,0.0,2.1854639053344727,-0.2732276916503906,-0.3835020959377289,22.25,0.0,2.2641420364379883,-0.2549886703491211,-0.3835020959377289,21.0,0.0,2.0617246627807617,-0.07581710815429688,-0.3835020959377289,19.0,0.0,1.911163330078125,0.5217790603637695,-0.5752531439065933,16.75,0.0,1.7538070678710938,0.7241964340209961,-0.5752531439065933,17.75,0.0,2.610325813293457,-1.2423992156982422,0.0,19.0,0.0,2.666473388671875,-1.2917518615722656,0.0,14.5,,,,,,,,,,,,,,,,,,,,,,,,,,,,,,,,,,,,,,,,
0.0,-0.23642843961715698,2.0174572467803955,0.005636498797684908,-0.14245058596134186,-0.5074072480201721,0.016198741272091866,-0.1407962292432785,-0.018255289644002914,0.011105279438197613,0.0,2.2552013397216797,-1.0646581649780273,-0.19175104796886444,12.5,0.0,2.0760297775268555,-0.6448030471801758,-0.19175104796886444,13.5,0.0,2.2426843643188477,-0.7892847061157227,-0.3835020959377289,14.25,0.0,1.7888545989990234,0.21958351135253906,-0.5752531439065933,26.5,0.0,1.777052879333496,0.2810955047607422,-0.5752531439065933,30.75,0.0,1.7724037170410156,0.39267539978027344,-0.5752531439065933,25.25,0.0,2.6203393936157227,-1.2674331665039062,0.0,20.0,0.0,2.6836395263671875,-1.2685060501098633,0.0,16.25,0.0,2.260923385620117,-0.32651424407958984,0.0,24.25,,,,,,,,,,,,,,,,,,,,,,,,,,,,,,,,,,,
0.0,-0.25900667905807495,1.9926422834396362,0.005147959105670452,-0.16806696355342865,-0.4661340117454529,0.014952242374420166,-0.15106609463691711,0.03376273438334465,0.009961259551346302,0.0,2.0323991775512695,-1.3096332550048828,0.19175104796886444,17.25,0.0,2.1268129348754883,-1.3622045516967773,-0.3835020959377289,17.25,0.0,2.350330352783203,-1.2230873107910156,-0.3835020959377289,14.25,0.0,2.05385684967041,-0.6852149963378906,-0.19175104796886444,16.5,0.0,1.750946044921875,0.31006336212158203,-0.5752531439065933,21.5,0.0,1.7548799514770508,0.3751516342163086,-0.5752531439065933,25.75,0.0,1.7974376678466797,0.43272972106933594,-0.5752531439065933,21.25,0.0,2.4715662002563477,-1.2127161026000977,0.0,17.0,0.0,2.6224851608276367,-1.2649297714233398,0.0,19.0,0.0,2.6847124099731445,-1.2677907943725586,0.0,15.5,0.0,2.246975898742676,-0.44524669647216797,0.0,20.75,0.0,2.113223075866699,-0.23281574249267578,0.0,28.5,,,,,,,,,,,,,,,,,,,,
0.0,-0.2971612513065338,1.93854558467865,0.005036259535700083,-0.21656343340873718,-0.48908931016921997,0.01404496654868126,-0.17609918117523193,-0.006496664136648178,0.008985770866274834,0.0,2.124667167663574,-1.2624263763427734,-0.3835020959377289,16.25,0.0,2.1715164184570312,-1.2552738189697266,-0.3835020959377289,17.5,0.0,1.8281936645507812,-0.3472566604614258,-0.5752531439065933,13.0,0.0,1.705169677734375,0.05328655242919922,-0.5752531439065933,22.5,0.0,1.7212629318237305,-0.004649162292480469,-0.5752531439065933,22.0,0.0,1.662611961364746,0.06830692291259766,-0.5752531439065933,14.25,0.0,2.4286508560180664,-1.3003349304199219,0.0,16.25,0.0,2.636432647705078,-1.2710094451904297,0.0,19.0,0.0,2.697587013244629,-1.246333122253418,0.0,16.0,,,,,,,,,,,,,,,,,,,,,,,,,,,,,,,,,,,
0.0,-0.3190905451774597,1.8944350481033325,0.004906130023300648,-0.2364347130060196,-0.47171851992607117,0.013150254264473915,-0.18099763989448547,0.02295607328414917,0.00808105617761612,0.0,2.0667314529418945,-1.3496875762939453,-0.19175104796886444,16.75,0.0,2.0720958709716797,-1.306772232055664,-0.19175104796886444,17.25,0.0,1.7867088317871094,-0.2778768539428711,-0.3835020959377289,17.75,0.0,1.7105340957641602,-0.015020370483398438,-0.5752531439065933,26.25,0.0,1.6515254974365234,0.10013580322265625,-0.3835020959377289,19.0,0.0,1.683354377746582,0.07224082946777344,-0.3835020959377289,26.5,0.0,2.4383068084716797,-1.2434720993041992,0.0,17.25,0.0,2.628922462463379,-1.2531280517578125,0.0,18.75,0.0,2.6972293853759766,-1.2667179107666016,0.0,16.25,,,,,,,,,,,,,,,,,,,,,,,,,,,,,,,,,,,
0.0,-0.44514286518096924,1.846386432647705,0.00453852117061615,-0.43919456005096436,-0.47137293219566345,0.01198566798120737,-0.3401346504688263,0.03278154134750366,0.007074940949678421,0.0,1.9294023513793945,-1.477360725402832,-0.19175104796886444,16.5,0.0,1.931905746459961,-1.2810230255126953,-0.19175104796886444,16.25,0.0,1.9358396530151367,-1.409769058227539,-0.19175104796886444,19.5,0.0,1.6129016876220703,-0.18489360809326172,-0.3835020959377289,19.0,0.0,1.6214847564697266,-0.21386146545410156,-0.3835020959377289,25.0,0.0,1.6611814498901367,-0.2542734146118164,-0.3835020959377289,21.75,0.0,1.8224716186523438,-0.23889541625976562,-0.3835020959377289,12.5,0.0,2.640366554260254,-1.2756586074829102,0.0,19.0,0.0,2.697587013244629,-1.270294189453125,0.0,16.5,,,,,,,,,,,,,,,,,,,,,,,,,,,,,,,,,,,
0.0,-0.5144765377044678,1.795135736465454,0.0041096992790699005,-0.5169491767883301,-0.47471722960472107,0.010734554380178452,-0.3780752122402191,0.028274165466427803,0.006046658381819725,0.0,1.9197463989257812,-1.2974739074707031,-0.19175104796886444,15.5,0.0,1.9680261611938477,-1.3965368270874023,-0.19175104796886444,21.25,0.0,1.9769668579101562,-1.4233589172363281,-0.19175104796886444,18.75,0.0,1.7588138580322266,-0.4391670227050781,-0.19175104796886444,13.5,0.0,1.5088319778442383,-0.2052783966064453,-0.3835020959377289,16.5,0.0,1.5714168548583984,-0.2117156982421875,-0.3835020959377289,28.5,0.0,1.5785694122314453,-0.21529197692871094,-0.3835020959377289,31.75,0.0,1.6222000122070312,-0.2435445785522461,-0.3835020959377289,26.25,0.0,2.110719680786133,-1.3518333435058594,0.0,20.5,0.0,2.0363330841064453,-1.289963722229004,0.0,20.25,0.0,2.361774444580078,-1.3579130172729492,0.0,16.75,0.0,2.6453733444213867,-1.2524127960205078,0.0,19.5,0.0,2.7043819427490234,-1.2534856796264648,0.0,16.75,,,,,,,,,,,,,,,
0.0,-0.620938777923584,1.7263572216033936,0.004087243229150772,-0.6553876399993896,-0.5007715821266174,0.00997026264667511,-0.46733972430229187,0.006746269762516022,0.005309647414833307,0.0,1.896500587463379,-1.2313127517700195,-0.19175104796886444,13.5,0.0,1.959085464477539,-1.3121366500854492,-0.3835020959377289,14.75,0.0,1.395106315612793,-0.5872249603271484,-0.19175104796886444,12.75,0.0,1.4498233795166016,-0.6004571914672852,-0.19175104796886444,24.5,0.0,1.4630556106567383,-0.5761384963989258,-0.19175104796886444,27.5,0.0,1.5546083450317383,-0.48923492431640625,-0.19175104796886444,21.5,0.0,1.5767812728881836,0.40519237518310547,-0.3835020959377289,17.5,0.0,1.4394521713256836,0.44739246368408203,-0.3835020959377289,15.0,0.0,1.4891624450683594,0.4627704620361328,-0.3835020959377289,25.25,0.0,1.488804817199707,0.45418739318847656,-0.3835020959377289,26.75,0.0,2.026677131652832,-1.303553581237793,0.0,19.75,0.0,2.1010637283325195,-1.3757944107055664,0.0,19.0,0.0,2.4007558822631836,-1.3217926025390625,0.0,16.5,0.0,2.619624137878418,-1.2824535369873047,0.0,19.25,0.0,2.6879310607910156,-1.272439956665039,0.0,15.75,0.0,1.5903711318969727,-0.15807151794433594,0.0,18.75
0.0,-0.662232518196106,1.6880815029144287,0.004430313128978014,-0.6467025876045227,-0.4891720712184906,0.009685001336038113,-0.4138093590736389,0.008030984550714493,0.004867639858275652,0.0,1.967310905456543,-0.89263916015625,-0.3835020959377289,12.75,0.0,1.8467903137207031,-0.7549524307250977,-0.3835020959377289,13.0,0.0,1.6372203826904297,-0.18525123596191406,-0.19175104796886444,12.75,0.0,1.5245676040649414,0.24068355560302734,-0.19175104796886444,22.25,0.0,1.5285015106201172,0.22530555725097656,-0.19175104796886444,22.5,0.0,1.4684200286865234,0.2846717834472656,-0.19175104796886444,15.25,0.0,1.5610456466674805,0.39768218994140625,-0.19175104796886444,14.5,0.0,1.9851922988891602,-1.3761520385742188,0.0,19.25,0.0,1.9458532333374023,-1.154780387878418,0.0,13.25,0.0,2.3696422576904297,-1.3693571090698242,0.0,16.0,0.0,2.6139020919799805,-1.3006925582885742,0.0,18.75,0.0,2.6875734329223633,-1.2856721878051758,0.0,15.75,0.0,1.5810728073120117,-0.24175643920898438,0.0,19.25,,,,,,,,,,,,,,,
0.0,-0.7986429929733276,1.6362221240997314,0.00484731700271368,-0.8051604628562927,-0.5170313715934753,0.009498761035501957,-0.5094817280769348,-0.03103620931506157,0.004503611475229263,0.0,1.8031597137451172,-1.569986343383789,-0.19175104796886444,16.75,0.0,1.9301176071166992,-1.46484375,-0.19175104796886444,13.5,0.0,1.519918441772461,0.27501583099365234,-0.19175104796886444,18.75,0.0,1.5295743942260742,0.28502941131591797,-0.19175104796886444,20.5,0.0,1.6061067581176758,0.28324127197265625,-0.19175104796886444,13.25,0.0,2.0134449005126953,-1.359701156616211,0.0,19.25,0.0,2.299189567565918,-1.422286033630371,0.0,14.0,0.0,2.620697021484375,-1.3135671615600586,0.0,16.75,0.0,2.6814937591552734,-1.3396739959716797,0.0,14.5,0.0,1.5964508056640625,-0.1251697540283203,0.0,20.5,0.0,1.646876335144043,-0.01895427703857422,0.0,25.0,,,,,,,,,,,,,,,,,,,,,,,,,
0.0,-0.8290133476257324,1.610826015472412,0.004319253843277693,-0.729365348815918,-0.5137078166007996,0.008153174072504044,-0.37117916345596313,-0.06507144868373871,0.0035151676274836063,0.0,1.7412900924682617,-1.512765884399414,-0.3835020959377289,16.5,0.0,1.774907112121582,-1.5256404876708984,-0.3835020959377289,18.75,0.0,1.9508600234985352,-1.4094114303588867,-0.3835020959377289,13.25,0.0,1.6425848007202148,-0.4191398620605469,-0.19175104796886444,14.0,0.0,1.461625099182129,0.020742416381835938,-0.19175104796886444,12.75,0.0,1.5109777450561523,0.011086463928222656,-0.19175104796886444,20.25,0.0,1.5445947647094727,-0.015377998352050781,-0.3835020959377289,20.75,0.0,1.9812583923339844,-1.370072364807129,0.0,18.75,0.0,1.9633769989013672,-1.1587142944335938,0.0,12.25,0.0,2.6557445526123047,-1.2924671173095703,0.0,16.5,0.0,2.7022361755371094,-1.2985467910766602,0.0,14.0,0.0,1.5878677368164062,-0.10120868682861328,0.0,21.25,0.0,1.6171932220458984,-0.03361701965332031,0.0,25.25,0.0,1.6629695892333984,0.04470348358154297,0.0,21.5,,,,,,,,,,
0.0,-0.7750716209411621,1.6082829236984253,0.0036968025378882885,-0.5365744829177856,-0.4373492896556854,0.0067820739932358265,-0.1679937094449997,0.0015308558940887451,0.002588958479464054,0.0,1.8775463104248047,-1.2781620025634766,-0.7670041918754578,12.75,0.0,1.9623041152954102,-1.2527704238891602,-0.7670041918754578,13.5,0.0,1.5546083450317383,-0.3719329833984375,-0.19175104796886444,20.75,0.0,1.5971660614013672,-0.4259347915649414,0.19175104796886444,15.0,0.0,1.5152692794799805,-0.26857852935791016,-0.19175104796886444,18.25,0.0,1.4376640319824219,-0.19097328186035156,-0.19175104796886444,12.75,0.0,1.5778541564941406,-0.1283884048461914,0.0,22.0,0.0,1.6050338745117188,-0.08654594421386719,0.0,25.25,0.0,1.660466194152832,0.03647804260253906,0.0,22.0,,,,,,,,,,,,,,,,,,,,,,,,,,,,,,,,,,,
0.0,-0.7779443860054016,1.6001527309417725,0.003358714748173952,-0.46363353729248047,-0.3797318637371063,0.005842901300638914,-0.09039412438869476,0.05108770355582237,0.0019491380080580711,0.0,1.8410682678222656,-1.4151334762573242,-0.19175104796886444,14.5,0.0,1.8267631530761719,-1.3371706008911133,-0.5752531439065933,15.0,0.0,1.531362533569336,-0.29075145721435547,-0.19175104796886444,17.75,0.0,1.5546083450317383,-0.3161430358886719,-0.19175104796886444,20.0,0.0,1.639723777770996,-0.35583972930908203,0.19175104796886444,13.75,0.0,2.092123031616211,-1.3217926025390625,0.0,15.0,0.0,1.5599727630615234,-0.19991397857666016,0.0,23.0,0.0,1.5617609024047852,-0.2288818359375,0.0,25.25,0.0,1.6254186630249023,-0.2557039260864258,0.0,18.0,0.0,1.5048980712890625,-0.12230873107910156,0.0,12.5,,,,,,,,,,,,,,,,,,,,,,,,,,,,,,
0.0,-0.6907837390899658,1.6076328754425049,0.003221457125619054,-0.25180619955062866,-0.2779236137866974,0.005159001797437668,0.09679880738258362,0.14068001508712769,0.00147449120413512,0.0,1.5224218368530273,-0.2503395080566406,-0.3835020959377289,25.75,0.0,1.5960931777954102,-0.32508373260498047,0.19175104796886444,17.75,0.0,1.488804817199707,-0.1952648162841797,-0.3835020959377289,26.25,0.0,1.4401674270629883,-0.11050701141357422,-0.3835020959377289,20.5,0.0,1.9494295120239258,-1.5056133270263672,0.0,12.75,0.0,1.559615135192871,-0.2728700637817383,0.0,26.25,0.0,1.6196966171264648,-0.3107786178588867,0.0,19.25,0.0,1.5567541122436523,-0.23066997528076172,0.0,24.0,,,,,,,,,,,,,,,,,,,,,,,,,,,,,,,,,,,,,,,,
0.0,-0.5954331159591675,1.6261940002441406,0.00302669545635581,-0.05276000499725342,-0.1580716371536255,0.004441746510565281,0.24952878057956696,0.24986445903778076,0.0010085881222039461,0.0,1.6121864318847656,-0.3458261489868164,0.19175104796886444,14.5,0.0,1.5267133712768555,-0.23353099822998047,0.19175104796886444,21.5,0.0,1.4122724533081055,-0.06973743438720703,-0.3835020959377289,19.25,0.0,1.46484375,-0.13840198516845703,-0.3835020959377289,23.25,0.0,1.6186237335205078,-0.4388093948364258,0.0,16.75,0.0,1.522064208984375,0.22852420806884766,0.0,22.25,0.0,1.5392303466796875,0.21350383758544922,0.0,23.25,,,,,,,,,,,,,,,,,,,,,,,,,,,,,,,,,,,,,,,,,,,,,
0.0,-0.5422960519790649,1.6118513345718384,0.002290537115186453,0.07324102520942688,-0.13779741525650024,0.00313594494946301,0.3458557724952698,0.22498467564582825,0.0002272165729664266,0.0,1.6758441925048828,-1.404404640197754,-0.3835020959377289,15.5,0.0,1.7670392990112305,-1.410841941833496,-0.19175104796886444,12.5,0.0,1.5993118286132812,-1.1937618255615234,-0.3835020959377289,13.25,0.0,1.5109777450561523,-0.3654956817626953,-0.19175104796886444,24.5,0.0,1.6132593154907227,-0.46312808990478516,-0.19175104796886444,18.75,0.0,1.4187097549438477,-0.10764598846435547,-0.19175104796886444,27.0,0.0,1.3114213943481445,0.00858306884765625,-0.19175104796886444,17.0,0.0,1.3657808303833008,-0.031828880310058594,-0.19175104796886444,26.25,0.0,1.6515254974365234,-0.33724308013916016,0.0,16.75,0.0,1.571059226989746,-0.2288818359375,0.0,22.0,,,,,,,,,,,,,,,,,,,,,,,,,,,,,,
0.0,-0.5041114687919617,1.6102567911148071,0.0022343446034938097,0.1575039178133011,-0.09521383792161942,0.0027184411883354187,0.38982099294662476,0.24097251892089844,-1.7135433154180646e-05,0.0,1.7430782318115234,-1.5320777893066406,-0.19175104796886444,13.5,0.0,1.4916658401489258,-0.18167495727539062,0.19175104796886444,16.0,0.0,1.335740089416504,0.15091896057128906,-0.3835020959377289,21.5,0.0,1.2137889862060547,0.3358125686645508,-0.3835020959377289,18.75,0.0,1.2449026107788086,0.3082752227783203,-0.3835020959377289,23.5,0.0,1.6433000564575195,-0.3343820571899414,0.0,17.0,0.0,1.5721321105957031,-0.22423267364501953,0.0,22.75,,,,,,,,,,,,,,,,,,,,,,,,,,,,,,,,,,,,,,,,,,,,,
0.0,-0.41278380155563354,1.597875952720642,0.0019351919181644917,0.3269236087799072,-0.08017240464687347,0.00202218652702868,0.5132085084915161,0.21071834862232208,-0.00041498697828501463,0.0,1.4820098876953125,-0.800013542175293,-0.19175104796886444,14.0,0.0,1.4684200286865234,-0.6172657012939453,-0.19175104796886444,19.0,0.0,1.4154911041259766,-0.06079673767089844,-0.19175104796886444,19.5,0.0,1.2946128845214844,0.2027750015258789,-0.3835020959377289,20.5,0.0,1.2431144714355469,0.21779537200927734,-0.3835020959377289,16.0,,,,,,,,,,,,,,,,,,,,,,,,,,,,,,,,,,,,,,,,,,,,,,,,,,,,,,,
0.0,-0.35202959179878235,1.5638296604156494,0.00136248127091676,0.4248034954071045,-0.11249101161956787,0.0010559014044702053,0.5619763135910034,0.1379278302192688,-0.0009445023606531322,0.0,1.6808509826660156,-1.2871026992797852,-0.19175104796886444,14.75,0.0,1.7720460891723633,-1.3031959533691406,-0.19175104796886444,18.25,0.0,1.795649528503418,-1.3496875762939453,-0.19175104796886444,14.5,0.0,1.2356042861938477,-0.6912946701049805,-0.5752531439065933,20.5,0.0,1.3715028762817383,-0.6437301635742188,-0.5752531439065933,20.25,0.0,0.9101629257202148,0.09942054748535156,-0.19175104796886444,15.75,0.0,1.2173652648925781,0.1552104949951172,-0.19175104796886444,28.0,0.0,1.2209415435791016,0.1806020736694336,-0.19175104796886444,30.5,0.0,1.2499094009399414,0.24747848510742188,-0.19175104796886444,25.75,0.0,1.8142461776733398,-1.2077093124389648,0.0,15.25,0.0,1.8911361694335938,-1.2906789779663086,0.0,13.5,0.0,1.5331506729125977,-0.43702125549316406,0.0,21.5,0.0,1.636505126953125,-0.43022632598876953,0.0,15.75,0.0,1.4308691024780273,-0.007867813110351562,0.0,20.25,0.0,1.2835264205932617,0.22029876708984375,0.0,21.0,0.0,1.2062788009643555,0.32722949981689453,0.0,17.0
0.0,-0.2780117094516754,1.5174990892410278,0.0011663089971989393,0.5305786728858948,-0.15384507179260254,0.0005877116927877069,0.6109136343002319,0.07185586541891098,-0.0011654089903458953,0.0,1.3446807861328125,-0.6312131881713867,-0.5752531439065933,13.0,0.0,1.2660026550292969,-0.3497600555419922,-0.19175104796886444,19.5,0.0,0.9151697158813477,0.01823902130126953,-0.3835020959377289,17.0,0.0,1.1837482452392578,0.015020370483398438,-0.3835020959377289,26.25,0.0,1.186966896057129,-0.014662742614746094,-0.3835020959377289,26.25,0.0,1.6314983367919922,-1.238107681274414,0.0,13.25,0.0,1.9276142120361328,-1.2402534484863281,0.0,13.25,0.0,1.8360614776611328,-1.1737346649169922,0.0,14.5,0.0,1.4934539794921875,-0.37729740142822266,0.0,18.0,0.0,1.3636350631713867,-0.14162063598632812,0.0,21.25,0.0,0.91552734375,-0.006794929504394531,0.0,12.25,0.0,1.1976957321166992,-0.010728836059570312,0.0,23.5,0.0,1.2420415878295898,-0.028967857360839844,0.0,24.75,,,,,,,,,,,,,,,
0.0,-0.14230123162269592,1.4897515773773193,0.0009080673917196691,0.731783390045166,-0.15007255971431732,7.042553625069559e-05,0.7376654744148254,0.06875289976596832,-0.0014028747100383043,0.0,1.6311407089233398,-0.5800724029541016,-0.19175104796886444,12.0,0.0,1.4902353286743164,-0.38051605224609375,-0.19175104796886444,14.5,0.0,0.9123086929321289,0.07617473602294922,-0.3835020959377289,20.25,0.0,1.1719465255737305,0.1176595687866211,-0.19175104796886444,29.25,0.0,1.1837482452392578,0.13911724090576172,-0.19175104796886444,29.25,0.0,1.248478889465332,0.13124942779541016,-0.19175104796886444,22.25,0.0,1.593947410583496,-1.292109489440918,0.0,12.25,0.0,1.6329288482666016,-1.4280080795288086,0.0,14.75,0.0,1.773834228515625,-1.4247894287109375,0.0,12.75,0.0,1.3153553009033203,-0.09763240814208984,0.0,21.25,0.0,1.2137889862060547,-0.0021457672119140625,0.0,27.5,,,,,,,,,,,,,,,,,,,,,,,,,
0.0,-0.01147628203034401,1.449755311012268,0.0007081407820805907,0.8996824622154236,-0.16842173039913177,-0.00033384098787792027,0.8229915499687195,0.044579699635505676,-0.001561880693770945,0.0,1.5950202941894531,-1.239180564880371,-0.5752531439065933,13.5,0.0,1.2516975402832031,-0.5539655685424805,-0.19175104796886444,13.25,0.0,0.8962154388427734,0.18703937530517578,-0.19175104796886444,18.75,0.0,1.1208057403564453,0.2231597900390625,-0.19175104796886444,25.75,0.0,1.130819320678711,0.19848346710205078,-0.19175104796886444,24.25,0.0,1.2288093566894531,0.1977682113647461,-0.19175104796886444,12.25,0.0,1.559615135192871,-1.3267993927001953,0.0,12.25,0.0,1.6851425170898438,-1.3360977172851562,0.0,14.5,0.0,1.7992258071899414,-1.376509666442871,0.0,12.75,0.0,2.6160478591918945,-1.361846923828125,0.0,13.5,0.0,1.3146400451660156,-0.09012222290039062,0.0,21.5,0.0,1.214146614074707,-0.0017881393432617188,0.0,27.25,,,,,,,,,,,,,,,,,,,,
0.0,0.0933327004313469,1.403853416442871,0.0005394385661929846,0.9962567090988159,-0.20375336706638336,-0.0006581797497346997,0.8345478773117065,0.002769358456134796,-0.001663772389292717,0.0,1.5506744384765625,-1.2413263320922852,-0.19175104796886444,15.75,0.0,1.5041828155517578,-1.107931137084961,-0.19175104796886444,13.5,0.0,1.2949705123901367,-0.20742416381835938,-0.19175104796886444,15.0,0.0,0.9015798568725586,0.1595020294189453,-0.19175104796886444,24.75,0.0,1.101851463317871,0.2009868621826172,-0.19175104796886444,31.0,0.0,1.1258125305175781,0.18775463104248047,-0.19175104796886444,27.75,0.0,1.7001628875732422,-1.3071298599243164,0.0,12.5,0.0,2.6557445526123047,-1.2960433959960938,0.0,16.0,0.0,2.734065055847168,-1.2853145599365234,0.0,13.75,,,,,,,,,,,,,,,,,,,,,,,,,,,,,,,,,,,
0.0,0.17205922305583954,1.3378901481628418,0.0003319396055303514,1.0262081623077393,-0.2653777301311493,-0.0010024253278970718,0.782948911190033,-0.05918039381504059,-0.001771009061485529,0.0,1.1065006256103516,-0.2617835998535156,-0.19175104796886444,22.0,0.0,1.1372566223144531,-0.2707242965698242,-0.19175104796886444,20.5,0.0,0.8947849273681641,-0.19419193267822266,-0.19175104796886444,17.0,0.0,0.8268356323242188,0.3933906555175781,-0.19175104796886444,20.75,0.0,0.9691715240478516,0.47957897186279297,-0.19175104796886444,24.25,0.0,0.9709596633911133,0.5314350128173828,-0.19175104796886444,18.75,0.0,2.6303529739379883,-1.3132095336914062,0.0,15.25,0.0,2.741217613220215,-1.2727975845336914,0.0,12.75,,,,,,,,,,,,,,,,,,,,,,,,,,,,,,,,,,,,,,,,
0.0,0.2600812613964081,1.2837949991226196,0.00017951329937204719,1.063321828842163,-0.3122049570083618,-0.0012385430745780468,0.7410821914672852,-0.10468542575836182,-0.0018061272567138076,0.0,0.8994340896606445,0.171661376953125,-0.19175104796886444,29.25,0.0,1.0614395141601562,0.21278858184814453,-0.19175104796886444,32.75,0.0,1.0825395584106445,0.21779537200927734,-0.19175104796886444,28.25,0.0,1.1737346649169922,0.29861927032470703,-0.19175104796886444,13.25,0.0,2.617478370666504,-1.3511180877685547,0.0,15.75,0.0,2.695441246032715,-1.348257064819336,0.0,13.25,,,,,,,,,,,,,,,,,,,,,,,,,,,,,,,,,,,,,,,,,,,,,,,,,,
0.0,0.29327961802482605,1.2538678646087646,3.188921982655302e-05,0.9975132346153259,-0.305136501789093,-0.0014426808338612318,0.6118255853652954,-0.07921116054058075,-0.0018176613375544548,0.0,1.0911226272583008,-0.6984472274780273,-0.19175104796886444,14.5,0.0,1.1258125305175781,-0.720977783203125,-0.19175104796886444,14.75,0.0,1.2516975402832031,-0.5757808685302734,-0.19175104796886444,14.25,0.0,0.9090900421142578,-0.10728836059570312,-0.19175104796886444,19.0,0.0,1.0353326797485352,-0.04363059997558594,-0.19175104796886444,18.5,0.0,2.6056766510009766,-1.35040283203125,0.0,15.75,0.0,2.6793479919433594,-1.3589859008789062,0.0,13.0,,,,,,,,,,,,,,,,,,,,,,,,,,,,,,,,,,,,,,,,,,,,,
0.0,0.29904502630233765,1.2239772081375122,-0.00010330466466257349,0.8820180892944336,-0.29479679465293884,-0.0016068536788225174,0.4486861228942871,-0.05672847479581833,-0.0018028762424364686,0.0,1.0807514190673828,-0.17380714416503906,-0.19175104796886444,18.25,0.0,0.9909868240356445,0.09334087371826172,-0.19175104796886444,28.75,0.0,0.9112358093261719,0.08761882781982422,-0.19175104796886444,29.75,0.0,2.6285648345947266,-1.328587532043457,0.0,13.5,,,,,,,,,,,,,,,,,,,,,,,,,,,,,,,,,,,,,,,,,,,,,,,,,,,,,,,,,,,,
0.0,0.2512454390525818,1.2174081802368164,-0.00022868075757287443,0.6864356994628906,-0.23272724449634552,-0.0017396267503499985,0.2341049611568451,0.02131609618663788,-0.0017687807558104396,0.0,0.9859800338745117,-0.10800361633300781,-0.19175104796886444,31.0,0.0,1.0442733764648438,-0.16200542449951172,-0.19175104796886444,20.5,0.0,0.9115934371948242,-0.08296966552734375,-0.19175104796886444,33.25,0.0,2.64894962310791,-1.3267993927001953,0.0,15.0,0.0,2.7179718017578125,-1.342177391052246,0.0,13.75,0.0,1.2845993041992188,-0.21922588348388672,0.0,13.75,0.0,0.9148120880126953,-0.03218650817871094,0.0,26.0,0.0,1.064300537109375,-0.005364418029785156,0.0,27.75,,,,,,,,,,,,,,,,,,,,,,,,,,,,,,,,,,,,,,,,
0.0,0.26143959164619446,1.2146202325820923,-0.00036636137519963086,0.6193572282791138,-0.16018782556056976,-0.0018696256447583437,0.1638588011264801,0.11603476852178574,-0.0017401075456291437,0.0,0.9140968322753906,-0.054001808166503906,0.19175104796886444,22.5,0.0,0.9809732437133789,-0.019311904907226562,0.19175104796886444,20.25,0.0,2.658963203430176,-1.3189315795898438,0.0,15.0,0.0,2.730131149291992,-1.3107061386108398,0.0,14.0,0.0,1.1208057403564453,-0.11050701141357422,0.0,19.5,0.0,1.0410547256469727,-0.041484832763671875,0.0,25.25,0.0,0.9151697158813477,-0.027179718017578125,0.0,26.0,,,,,,,,,,,,,,,,,,,,,,,,,,,,,,,,,,,,,,,,,,,,,
0.0,0.2151760458946228,1.2341798543930054,-0.0004568107542581856,0.4643818736076355,-0.04129428416490555,-0.0019262456335127354,0.02530747652053833,0.24998044967651367,-0.0016684273723512888,0.0,0.9130239486694336,-0.06937980651855469,0.19175104796886444,30.0,0.0,0.9788274765014648,-0.07402896881103516,0.19175104796886444,28.75,0.0,1.038193702697754,-0.08547306060791016,0.19175104796886444,17.75,0.0,2.662539482116699,-1.3085603713989258,0.0,16.0,0.0,2.7408599853515625,-1.2763738632202148,0.0,14.75,0.0,1.097559928894043,-0.10728836059570312,0.0,18.75,0.0,0.914454460144043,-0.04398822784423828,0.0,27.0,0.0,1.015305519104004,-0.050067901611328125,0.0,26.25,,,,,,,,,,,,,,,,,,,,,,,,,,,,,,,,,,,,,,,,
0.0,0.17821179330348969,1.2624094486236572,-0.0005362103111110628,0.34063535928726196,0.08898492157459259,-0.0019578086212277412,-0.0721193179488182,0.3886330723762512,-0.001588879618793726,0.0,0.9137392044067383,-0.05543231964111328,0.3835020959377289,21.0,0.0,1.0085105895996094,-0.05793571472167969,0.3835020959377289,21.0,0.0,1.0857582092285156,-0.0400543212890625,0.3835020959377289,12.75,0.0,2.6503801345825195,-1.3235807418823242,0.0,15.5,0.0,2.7136802673339844,-1.3343095779418945,0.0,14.25,0.0,1.0821819305419922,-0.05936622619628906,0.0,20.5,0.0,0.9151697158813477,-0.026464462280273438,0.0,29.25,0.0,1.0145902633666992,-0.018596649169921875,0.0,28.75,,,,,,,,,,,,,,,,,,,,,,,,,,,,,,,,,,,,,,,,
0.0,0.19026708602905273,1.293063759803772,-0.000601397012360394,0.31039464473724365,0.2086961716413498,-0.001960067544132471,-0.08027414977550507,0.507804274559021,-0.001500060549005866,0.0,1.131892204284668,-0.7910728454589844,0.3835020959377289,12.0,0.0,1.1608600616455078,0.10478496551513672,0.5752531439065933,22.5,0.0,0.9105205535888672,0.09441375732421875,0.5752531439065933,18.5,0.0,1.136183738708496,0.11229515075683594,0.5752531439065933,25.0,0.0,2.6224851608276367,-1.3647079467773438,0.0,15.5,0.0,2.6700496673583984,-1.3850927352905273,0.0,13.25,0.0,0.9151697158813477,-0.01895427703857422,0.0,28.75,0.0,1.0160207748413086,0.010371208190917969,0.0,28.75,0.0,1.0775327682495117,0.0743865966796875,0.0,22.25,,,,,,,,,,,,,,,,,,,,,,,,,,,,,,,,,,,
0.0,0.0581759512424469,1.3898930549621582,-0.0006782975979149342,0.04323077201843262,0.43952569365501404,-0.0019737519323825836,-0.29246872663497925,0.7187529802322388,-0.001420478569343686,0.0,1.1801719665527344,-0.5053281784057617,0.7670041918754578,12.25,0.0,1.1512041091918945,-0.3733634948730469,0.7670041918754578,17.75,0.0,2.935051918029785,-1.0364055633544922,1.1505062878131866,13.0,0.0,1.1343955993652344,-0.30612945556640625,0.7670041918754578,17.75,0.0,2.651095390319824,-1.3414621353149414,0.0,15.0,0.0,2.7430057525634766,-1.2917518615722656,0.0,14.0,0.0,0.9148120880126953,-0.0400543212890625,0.0,27.5,0.0,0.996708869934082,-0.035762786865234375,0.0,26.5,0.0,1.0685920715332031,-0.06937980651855469,0.0,17.5,,,,,,,,,,,,,,,,,,,,,,,,,,,,,,,,,,,
0.0,0.012988638132810593,1.4315025806427002,-0.0006838853587396443,-0.0663873553276062,0.5523561835289001,-0.0018857128452509642,-0.3606696128845215,0.7950875163078308,-0.0012867064215242863,0.0,0.9133815765380859,-0.06222724914550781,0.7670041918754578,15.5,0.0,1.2116432189941406,-0.08547306060791016,0.7670041918754578,26.75,0.0,1.2166500091552734,-0.07975101470947266,0.7670041918754578,27.5,0.0,1.2652873992919922,-0.0457763671875,0.5752531439065933,19.75,0.0,2.685070037841797,-1.2971162796020508,0.0,14.25,0.0,2.761244773864746,-1.279592514038086,0.0,13.75,0.0,0.914454460144043,-0.043272972106933594,0.0,27.75,0.0,1.0095834732055664,-0.040411949157714844,0.0,27.0,,,,,,,,,,,,,,,,,,,,,,,,,,,,,,,,,,,,,,,,
0.0,-0.0588851124048233,1.480778455734253,-0.0006895465776324272,-0.21234017610549927,0.6401289701461792,-0.0017898029182106256,-0.45761680603027344,0.8154045343399048,-0.0011528577888384461,0.0,1.4344453811645508,-0.9595155715942383,0.7670041918754578,14.75,0.0,1.3189315795898438,-0.722050666809082,0.3835020959377289,19.0,0.0,1.2974739074707031,-0.14162063598632812,0.7670041918754578,25.75,0.0,1.2642145156860352,-0.05257129669189453,0.7670041918754578,24.5,0.0,1.2756586074829102,-0.0711679458618164,0.7670041918754578,29.25,0.0,0.914454460144043,-0.04076957702636719,0.0,28.75,,,,,,,,,,,,,,,,,,,,,,,,,,,,,,,,,,,,,,,,,,,,,,,,,,
0.0,-0.10166246443986893,1.5256450176239014,-0.0006564363138750196,-0.2930653989315033,0.6959611177444458,-0.0016435424331575632,-0.4892684817314148,0.7948004007339478,-0.000996649730950594,0.0,1.5166997909545898,-0.8096694946289062,0.19175104796886444,13.0,0.0,1.4287233352661133,-0.1977682113647461,0.7670041918754578,21.25,0.0,1.3715028762817383,-0.059723854064941406,0.7670041918754578,28.75,0.0,1.3185739517211914,-0.012516975402832031,0.7670041918754578,19.0,0.0,1.360774040222168,-0.031113624572753906,0.7670041918754578,28.25,,,,,,,,,,,,,,,,,,,,,,,,,,,,,,,,,,,,,,,,,,,,,,,,,,,,,,,
0.0,-0.1334153413772583,1.599215030670166,-0.0008257738081738353,-0.34199225902557373,0.7754411697387695,-0.0017432074528187513,0.0,0.0,0.0,,,,,,,,,,,,,,,,,,,,,,,,,,,,,,,,,,,,,,,,,,,,,,,,,,,,,,,,,,,,,,,,,,,,,,,,,,,,,,,,
0.0,-0.2132846862077713,1.666197419166565,-0.0007888240506872535,-0.42353445291519165,0.7818914651870728,-0.0014957759995013475,-0.07298435270786285,0.022978413850069046,0.00014514048234559596,0.0,1.8700361251831055,-1.5352964401245117,1.5340083837509155,12.25,0.0,1.600027084350586,-0.5525350570678711,1.1505062878131866,16.75,0.0,1.5456676483154297,-0.26679039001464844,1.1505062878131866,21.0,0.0,1.4541149139404297,-0.18203258514404297,0.7670041918754578,14.5,0.0,1.4923810958862305,-0.21028518676757812,0.5752531439065933,22.0,,,,,,,,,,,,,,,,,,,,,,,,,,,,,,,,,,,,,,,,,,,,,,,,,,,,,,,
0.0,-0.42246341705322266,1.7770631313323975,-0.0007688531186431646,-0.7092153429985046,0.8197851181030273,-0.0012806168524548411,-0.31079939007759094,0.048884909600019455,0.00026486851857043803,0.0,1.9987821578979492,-1.395106315612793,0.7670041918754578,13.0,0.0,2.045273780822754,-1.4623403549194336,0.7670041918754578,12.0,0.0,1.6551017761230469,-0.6451606750488281,1.1505062878131866,22.25,0.0,1.715540885925293,-0.653386116027832,1.1505062878131866,16.25,0.0,1.3232231140136719,0.7731914520263672,0.7670041918754578,17.25,0.0,1.2456178665161133,0.994563102722168,0.7670041918754578,18.25,,,,,,,,,,,,,,,,,,,,,,,,,,,,,,,,,,,,,,,,,,,,,,,,,,
0.0,-0.525459349155426,1.8621916770935059,-0.0007754063699394464,-0.7910635471343994,0.8264320492744446,-0.001113524311222136,-0.3540049195289612,0.04938920587301254,0.00034732522908598185,0.0,2.0749568939208984,-1.4380216598510742,0.7670041918754578,13.0,0.0,1.8010139465332031,-0.4953145980834961,1.342257335782051,14.75,0.0,1.7023086547851562,-0.34868717193603516,0.9587552398443222,19.75,,,,,,,,,,,,,,,,,,,,,,,,,,,,,,,,,,,,,,,,,,,,,,,,,,,,,,,,,,,,,,,,,
0.0,-0.5914631485939026,1.9549542665481567,-0.0007993897888809443,-0.8090752363204956,0.8627790808677673,-0.0009828140027821064,-0.34573933482170105,0.09413325041532516,0.0004011529090348631,0.0,2.001643180847168,-0.4709959030151367,1.342257335782051,16.0,0.0,1.8936395645141602,-0.3604888916015625,1.1505062878131866,20.25,,,,,,,,,,,,,,,,,,,,,,,,,,,,,,,,,,,,,,,,,,,,,,,,,,,,,,,,,,,,,,,,,,,,,,
0.0,-0.617198646068573,2.0420608520507812,-0.0008065615547820926,-0.7506335377693176,0.8719672560691833,-0.0008416714845225215,-0.2672370672225952,0.0895373597741127,0.0004589857708197087,0.0,1.9637346267700195,-0.33080577850341797,0.9587552398443222,24.75,0.0,2.0685195922851562,-0.30040740966796875,0.9587552398443222,23.5,,,,,,,,,,,,,,,,,,,,,,,,,,,,,,,,,,,,,,,,,,,,,,,,,,,,,,,,,,,,,,,,,,,,,,
0.0,-0.7769198417663574,2.093043088912964,-0.000805361254606396,-0.897918164730072,0.8018411993980408,-0.000699077092576772,-0.3549697697162628,-0.0021528974175453186,0.000516280357260257,0.0,1.810312271118164,-1.4190673828125,0.7670041918754578,14.75,0.0,1.8807649612426758,-1.1715888977050781,0.9587552398443222,16.25,,,,,,,,,,,,,,,,,,,,,,,,,,,,,,,,,,,,,,,,,,,,,,,,,,,,,,,,,,,,,,,,,,,,,,
0.0,-0.6112682819366455,2.0945165157318115,-0.000668141117785126,-0.4936908483505249,0.6159764528274536,-0.0004153964400757104,0.042235761880874634,-0.2609314024448395,0.0006523433839902282,0.0,2.069234848022461,-1.1472702026367188,0.5752531439065933,13.75,0.0,1.787424087524414,-0.31256675720214844,0.19175104796886444,20.25,0.0,1.8296241760253906,-0.25963783264160156,0.19175104796886444,26.5,0.0,1.8739700317382812,-0.18417835235595703,0.19175104796886444,23.5,0.0,2.02023983001709,-0.25963783264160156,0.19175104796886444,13.5,,,,,,,,,,,,,,,,,,,,,,,,,,,,,,,,,,,,,,,,,,,,,,,,,,,,,,,
0.0,-0.7986170053482056,2.111227035522461,-0.0006040776497684419,-0.6830152273178101,0.49028313159942627,-0.0002353185846004635,-0.09722062945365906,-0.370794415473938,0.0007180274114944041,0.0,1.9419193267822266,-1.3886690139770508,0.5752531439065933,18.0,0.0,1.9941329956054688,-1.4623403549194336,0.5752531439065933,14.5,0.0,1.9426345825195312,-1.199483871459961,0.5752531439065933,14.0,,,,,,,,,,,,,,,,,,,,,,,,,,,,,,,,,,,,,,,,,,,,,,,,,,,,,,,,,,,,,,,,,
0.0,-0.9551312923431396,2.1156415939331055,-0.0005401222151704133,-0.786069929599762,0.3209651708602905,-6.880176078993827e-05,-0.13580664992332458,-0.5439672470092773,0.0007730366778559983,0.0,1.9941329956054688,-1.4719963073730469,0.19175104796886444,14.0,0.0,2.1053552627563477,-1.4923810958862305,0.19175104796886444,17.25,0.0,2.197265625,-1.4605522155761719,0.19175104796886444,15.5,0.0,1.8260478973388672,-1.5006065368652344,0.0,14.5,,,,,,,,,,,,,,,,,,,,,,,,,,,,,,,,,,,,,,,,,,,,,,,,,,,,,,,,,,,,
0.0,-0.8435266017913818,2.1178975105285645,-0.00038485683035105467,-0.47116589546203613,0.1744847297668457,0.00017427103011868894,0.17043852806091309,-0.7025654911994934,0.000864252564497292,0.0,2.121448516845703,-1.4269351959228516,0.3835020959377289,18.0,0.0,2.1364688873291016,-1.4948844909667969,0.3835020959377289,14.0,0.0,2.120375633239746,-1.2137889862060547,0.3835020959377289,14.75,0.0,1.7960071563720703,-0.42057037353515625,-0.19175104796886444,12.5,0.0,1.8646717071533203,-0.3243684768676758,-0.19175104796886444,23.5,0.0,2.028822898864746,-0.33223628997802734,-0.19175104796886444,15.0,0.0,1.9011497497558594,-0.2599954605102539,-0.19175104796886444,23.5,0.0,1.958012580871582,-1.305699348449707,0.0,14.75,0.0,1.8153190612792969,-0.21457672119140625,0.0,26.5,0.0,1.8911361694335938,-0.26786327362060547,0.0,24.75,,,,,,,,,,,,,,,,,,,,,,,,,,,,,,
0.0,-0.9252819418907166,2.1189236640930176,-0.00033311606966890395,-0.48465925455093384,0.04323110729455948,0.0002929160255007446,0.1665235459804535,-0.791045069694519,0.0008822842501103878,0.0,2.2287368774414062,-1.4011859893798828,-0.19175104796886444,13.0,0.0,2.315640449523926,-1.3135671615600586,-0.19175104796886444,12.5,0.0,1.8146038055419922,0.05221366882324219,-0.19175104796886444,22.75,0.0,1.9623041152954102,0.058650970458984375,-0.19175104796886444,12.75,0.0,1.844644546508789,0.06222724914550781,-0.19175104796886444,27.0,0.0,1.8661022186279297,0.07045269012451172,-0.19175104796886444,23.5,0.0,1.7877817153930664,-0.19168853759765625,0.0,21.5,0.0,1.832127571105957,-0.20599365234375,0.0,27.0,0.0,1.890420913696289,-0.2288818359375,0.0,24.5,,,,,,,,,,,,,,,,,,,,,,,,,,,,,,,,,,,
0.0,-0.9729152321815491,2.1192915439605713,-0.000299413048196584,0.0,0.0,0.0,0.0,0.0,0.0,0.0,1.7534494400024414,-0.04220008850097656,-0.19175104796886444,20.25,0.0,1.7527341842651367,-0.013232231140136719,-0.19175104796886444,21.0,0.0,1.8110275268554688,0.0017881393432617188,-0.19175104796886444,12.25,0.0,1.7952919006347656,-0.19562244415283203,0.0,21.5,0.0,1.8310546875,-0.21636486053466797,0.0,27.25,0.0,1.8875598907470703,-0.23317337036132812,0.0,24.5,0.0,2.021670341491699,-0.26535987854003906,0.0,21.75,,,,,,,,,,,,,,,,,,,,,,,,,,,,,,,,,,,,,,,,,,,,,
0.0,-0.908759355545044,2.1263344287872314,-0.0002823924005497247,0.09249043464660645,0.016962086781859398,1.6329193385899998e-05,0.0731615424156189,0.010368259623646736,8.409925612795632e-06,0.0,1.7942190170288086,-0.08976459503173828,-0.19175104796886444,17.25,0.0,1.6883611679077148,-0.02288818359375,-0.19175104796886444,18.0,0.0,1.739501953125,-0.030040740966796875,-0.19175104796886444,27.0,0.0,1.7420053482055664,-0.04863739013671875,-0.19175104796886444,27.0,0.0,2.0581483840942383,-1.4605522155761719,0.0,15.5,0.0,1.9737482070922852,-0.4355907440185547,0.0,17.0,0.0,1.8167495727539062,-0.18346309661865234,0.0,27.5,0.0,1.850724220275879,-0.23496150970458984,0.0,23.75,,,,,,,,,,,,,,,,,,,,,,,,,,,,,,,,,,,,,,,,
0.0,-0.9487699866294861,2.1388866901397705,-0.0002511506318114698,0.03194403275847435,0.034277208149433136,4.951428127242252e-05,0.020976640284061432,0.03464457392692566,2.6248508220305666e-05,0.0,2.2755861282348633,-1.294255256652832,0.19175104796886444,16.5,0.0,2.2863149642944336,-1.397252082824707,0.19175104796886444,16.25,0.0,1.7484426498413086,0.009655952453613281,-0.19175104796886444,21.75,0.0,1.7931461334228516,0.20599365234375,0.19175104796886444,23.75,0.0,1.8224716186523438,0.4080533981323242,0.19175104796886444,20.5,0.0,1.978754997253418,-0.46062469482421875,0.0,16.25,0.0,1.8110275268554688,-0.2052783966064453,0.0,26.25,0.0,1.8432140350341797,-0.25177001953125,0.0,23.0,,,,,,,,,,,,,,,,,,,,,,,,,,,,,,,,,,,,,,,,
0.0,-0.9652205109596252,2.1588542461395264,-0.00022572492889594287,0.007076499983668327,0.05972466617822647,7.639545219717547e-05,-0.001792311668395996,0.060636699199676514,4.0648432332091033e-05,0.0,2.412557601928711,-1.1487007141113281,0.19175104796886444,14.0,0.0,2.4182796478271484,-1.2191534042358398,0.19175104796886444,16.0,0.0,1.6175508499145508,-0.058650970458984375,0.19175104796886444,18.0,0.0,1.6429424285888672,-0.04184246063232422,0.19175104796886444,13.75,0.0,2.018094062805176,0.0776052474975586,0.19175104796886444,17.0,0.0,2.023458480834961,0.23639202117919922,0.19175104796886444,22.25,0.0,1.7910003662109375,0.7098913192749023,0.19175104796886444,14.75,0.0,2.061009407043457,-1.3464689254760742,0.0,16.5,0.0,2.202272415161133,-1.3661384582519531,0.0,18.0,0.0,2.2995471954345703,-1.3418197631835938,0.0,17.25,0.0,1.8922090530395508,0.02753734588623047,0.0,22.25,,,,,,,,,,,,,,,,,,,,,,,,,
0.0,-0.9916938543319702,2.171515941619873,-0.00019793982210103422,-0.017941338941454887,0.049626223742961884,0.00010553924948908389,-0.01088388729840517,0.03291996940970421,5.6321405281778425e-05,0.0,2.40933895111084,-1.1597871780395508,0.19175104796886444,20.5,0.0,2.411484718322754,-1.2427568435668945,-0.19175104796886444,22.75,0.0,2.4358034133911133,-1.2949705123901367,-0.19175104796886444,17.25,0.0,1.8074512481689453,0.018596649169921875,0.19175104796886444,19.0,0.0,1.8521547317504883,0.03218650817871094,0.19175104796886444,25.25,0.0,1.8839836120605469,0.05042552947998047,0.19175104796886444,25.0,0.0,1.9769668579101562,0.14519691467285156,0.19175104796886444,16.0,0.0,2.1042823791503906,-1.2706518173217773,0.0,15.75,0.0,2.283811569213867,-1.2978315353393555,0.0,18.75,0.0,2.663254737854004,-1.302480697631836,0.0,13.25,,,,,,,,,,,,,,,,,,,,,,,,,,,,,,
0.0,-0.9276739358901978,2.185483932495117,-0.0001761744060786441,0.06734468042850494,0.0871388390660286,0.00012693411554209888,0.049477193504571915,0.07236617803573608,6.738820957252756e-05,0.0,2.513408660888672,-1.1665821075439453,-0.19175104796886444,13.0,0.0,1.9701719284057617,-0.4202127456665039,0.19175104796886444,16.25,0.0,1.8922090530395508,-0.20170211791992188,0.19175104796886444,21.0,0.0,1.7834901809692383,-0.003933906555175781,0.19175104796886444,21.25,0.0,1.8242597579956055,0.07617473602294922,0.19175104796886444,25.25,0.0,2.1049976348876953,-1.2677907943725586,0.0,15.25,0.0,2.2820234298706055,-1.3175010681152344,0.0,19.0,0.0,2.674698829650879,-1.2720823287963867,0.0,13.0,0.0,1.843571662902832,-0.04220008850097656,0.0,25.5,0.0,1.8961429595947266,-0.012159347534179688,0.0,24.5,,,,,,,,,,,,,,,,,,,,,,,,,,,,,,
0.0,-0.9371068477630615,2.179608106613159,-0.00015536704449914396,0.06702955067157745,0.05212799459695816,0.0001477945043006912,0.06210871413350105,0.017924677580595016,7.83489813329652e-05,0.0,2.1990537643432617,-1.0292530059814453,-0.19175104796886444,15.75,0.0,2.2716522216796875,-1.132965087890625,-0.19175104796886444,16.0,0.0,2.3703575134277344,-1.1301040649414062,-0.19175104796886444,12.75,0.0,2.119302749633789,-0.7027387619018555,-0.19175104796886444,14.25,0.0,1.7638206481933594,0.0286102294921875,0.19175104796886444,17.75,0.0,1.7781257629394531,0.09119510650634766,0.19175104796886444,19.75,0.0,1.863241195678711,0.14591217041015625,0.19175104796886444,13.5,0.0,2.678990364074707,-1.2649297714233398,0.0,13.0,,,,,,,,,,,,,,,,,,,,,,,,,,,,,,,,,,,,,,,,
0.0,-0.9932994842529297,2.178614616394043,-0.0001237410178873688,-0.024104349315166473,0.04302769899368286,0.00017418120114598423,-0.021135274320840836,0.019887635484337807,8.881589747034013e-05,0.0,2.058863639831543,-1.4587640762329102,0.19175104796886444,12.5,0.0,2.144336700439453,-1.4709234237670898,0.19175104796886444,17.25,0.0,2.2280216217041016,-1.4129877090454102,0.19175104796886444,14.75,0.0,1.818537712097168,0.0025033950805664062,0.19175104796886444,19.0,0.0,1.8582344055175781,0.08475780487060547,0.19175104796886444,24.5,0.0,1.8911361694335938,0.2238750457763672,0.19175104796886444,23.5,0.0,1.969456672668457,0.3744363784790039,0.19175104796886444,17.75,0.0,2.543807029724121,-1.2584924697875977,0.0,19.0,0.0,2.6907920837402344,-1.2613534927368164,0.0,14.25,,,,,,,,,,,,,,,,,,,,,,,,,,,,,,,,,,,
0.0,-0.9958155751228333,2.183016777038574,-0.00010587881843093783,0.0,0.0,0.0,0.0,0.0,0.0,0.0,1.80816650390625,-0.04076957702636719,0.19175104796886444,24.5,0.0,1.829981803894043,-0.014662742614746094,0.19175104796886444,28.5,0.0,1.8607378005981445,0.05042552947998047,0.19175104796886444,24.25,0.0,1.966238021850586,0.2682209014892578,0.19175104796886444,14.5,0.0,2.5577545166015625,-1.2634992599487305,0.0,19.75,0.0,2.688288688659668,-1.2542009353637695,0.0,15.0,,,,,,,,,,,,,,,,,,,,,,,,,,,,,,,,,,,,,,,,,,,,,,,,,,
0.0,-0.9735921621322632,2.19667649269104,-9.71645931713283e-05,0.02397703006863594,0.03986772149801254,9.875975592876785e-06,0.00839223526418209,0.05444185063242912,5.606765171251027e-06,0.0,2.2280216217041016,-1.3318061828613281,0.3835020959377289,12.25,0.0,1.9479990005493164,-0.23066997528076172,0.19175104796886444,12.0,0.0,1.7223358154296875,0.02682209014892578,0.19175104796886444,12.25,0.0,1.8142461776733398,0.041484832763671875,0.19175104796886444,27.75,0.0,1.8256902694702148,0.04935264587402344,0.19175104796886444,32.5,0.0,1.8374919891357422,0.054717063903808594,0.19175104796886444,28.0,0.0,2.137899398803711,-1.2295246124267578,0.0,16.5,0.0,2.6772022247314453,-1.267075538635254,0.0,15.75,,,,,,,,,,,,,,,,,,,,,,,,,,,,,,,,,,,,,,,,
0.0,-0.9398224949836731,2.2073612213134766,-9.002748265629634e-05,0.06950865685939789,0.07113180309534073,1.7618742276681587e-05,0.039247602224349976,0.0929565578699112,9.947905709850602e-06,0.0,2.2455453872680664,-1.2466907501220703,0.19175104796886444,14.75,0.0,1.8002986907958984,-0.10836124420166016,0.19175104796886444,16.25,0.0,1.7917156219482422,-0.050067901611328125,0.19175104796886444,13.0,0.0,2.5745630264282227,-1.267075538635254,0.0,20.25,0.0,2.6825666427612305,-1.2770891189575195,0.0,15.75,,,,,,,,,,,,,,,,,,,,,,,,,,,,,,,,,,,,,,,,,,,,,,,,,,,,,,,
0.0,-0.951148509979248,2.210073232650757,-8.636593702249229e-05,0.05176175385713577,0.07458928227424622,2.1811005353811197e-05,0.023249158635735512,0.09924621880054474,1.2317705113673583e-05,0.0,2.4018287658691406,-1.291036605834961,0.19175104796886444,14.0,0.0,1.7927885055541992,0.09655952453613281,-0.19175104796886444,12.75,0.0,1.8106698989868164,0.080108642578125,-0.19175104796886444,17.0,0.0,1.873612403869629,0.3197193145751953,-0.19175104796886444,13.25,0.0,2.1178722381591797,-1.2559890747070312,0.0,17.0,0.0,2.2966861724853516,-1.3071298599243164,0.0,19.75,0.0,2.6693344116210938,-1.2946128845214844,0.0,15.5,,,,,,,,,,,,,,,,,,,,,,,,,,,,,,,,,,,,,,,,,,,,,
0.0,-0.9870443940162659,2.2118000984191895,-7.715220272075385e-05,0.0005866512656211853,0.06492290645837784,3.192323856637813e-05,-0.016879526898264885,0.08794008195400238,1.7915064745466225e-05,0.0,2.381443977355957,-1.3521909713745117,0.19175104796886444,18.75,0.0,2.3621320724487305,-1.4594793319702148,0.19175104796886444,15.0,0.0,2.3953914642333984,-1.2280941009521484,-0.19175104796886444,16.0,0.0,1.816391944885254,0.1251697540283203,-0.19175104796886444,12.5,0.0,3.7615299224853516,0.30541419982910156,-0.5752531439065933,13.25,0.0,1.8593072891235352,0.2009868621826172,-0.19175104796886444,17.75,0.0,1.888275146484375,0.28252601623535156,-0.19175104796886444,16.75,0.0,1.9859075546264648,0.2771615982055664,-0.19175104796886444,15.25,0.0,3.7125349044799805,0.40340423583984375,-0.3835020959377289,13.25,0.0,2.6782751083374023,-1.293182373046875,0.0,14.0,,,,,,,,,,,,,,,,,,,,,,,,,,,,,,
0.0,-1.0048044919967651,2.2144086360931396,-7.19183444743976e-05,-0.027463054284453392,0.06749981641769409,3.7908834201516584e-05,-0.041981328278779984,0.09434136748313904,2.13077637454262e-05,0.0,2.3092031478881836,-1.2499094009399414,0.19175104796886444,12.75,0.0,2.3632049560546875,-1.3103485107421875,0.19175104796886444,14.25,0.0,1.8339157104492188,0.2206563949584961,-0.19175104796886444,14.0,0.0,1.8793344497680664,0.37479400634765625,-0.19175104796886444,22.75,0.0,1.8939971923828125,0.44524669647216797,-0.19175104796886444,24.75,0.0,1.9390583038330078,0.49996376037597656,-0.19175104796886444,19.5,0.0,2.179741859436035,-1.1744499206542969,0.0,14.25,0.0,1.947641372680664,0.3916025161743164,0.0,21.25,,,,,,,,,,,,,,,,,,,,,,,,,,,,,,,,,,,,,,,,
0.0,-1.0048044919967651,2.2144086360931396,-7.19183444743976e-05,-0.027463054284453392,0.06749981641769409,3.7908834201516584e-05,-0.041981328278779984,0.09434136748313904,2.13077637454262e-05,0.0,1.8031597137451172,0.0890493392944336,-0.19175104796886444,17.75,0.0,1.8349885940551758,0.16450881958007812,-0.19175104796886444,22.25,0.0,1.868605613708496,0.2524852752685547,-0.19175104796886444,19.5,0.0,2.169013023376465,-1.2595653533935547,0.0,13.0,0.0,2.3353099822998047,-1.3049840927124023,0.0,19.0,0.0,1.9494295120239258,0.3719329833984375,0.0,22.0,,,,,,,,,,,,,,,,,,,,,,,,,,,,,,,,,,,,,,,,,,,,,,,,,,
0.0,-1.0048044919967651,2.2144086360931396,-7.19183444743976e-05,-0.027463054284453392,0.06749981641769409,3.7908834201516584e-05,-0.041981328278779984,0.09434136748313904,2.13077637454262e-05,0.0,1.7766952514648438,0.027179718017578125,-0.19175104796886444,20.0,0.0,1.7802715301513672,0.0883340835571289,-0.19175104796886444,22.25,0.0,1.8045902252197266,0.26607513427734375,-0.19175104796886444,16.0,0.0,2.4079084396362305,-1.2012720108032227,0.0,16.25,,,,,,,,,,,,,,,,,,,,,,,,,,,,,,,,,,,,,,,,,,,,,,,,,,,,,,,,,,,,
0.0,-0.9235642552375793,2.2268831729888916,-6.662472151219845e-05,0.08574363589286804,0.1165584847331047,4.337024438427761e-05,0.04130427911877632,0.15262669324874878,2.440681964799296e-05,0.0,1.8181800842285156,-0.19812583923339844,0.19175104796886444,12.25,0.0,1.8661022186279297,-0.2263784408569336,0.19175104796886444,19.5,0.0,1.8714666366577148,-0.22351741790771484,0.19175104796886444,18.0,0.0,2.4247169494628906,-1.176595687866211,0.0,16.0,0.0,1.8138885498046875,0.08869171142578125,0.0,20.25,0.0,1.843571662902832,0.16236305236816406,0.0,25.5,0.0,1.8678903579711914,0.26607513427734375,0.0,24.0,0.0,1.9276142120361328,0.42450428009033203,0.0,21.25,,,,,,,,,,,,,,,,,,,,,,,,,,,,,,,,,,,,,,,,
0.0,-0.8143924474716187,2.245734214782715,-6.058201688574627e-05,0.2405710369348526,0.18345248699188232,4.9583039071876556e-05,0.157441183924675,0.23022261261940002,2.793852581817191e-05,0.0,1.8231868743896484,-0.05936622619628906,0.19175104796886444,17.75,0.0,1.8721818923950195,-0.07510185241699219,0.19175104796886444,24.0,0.0,1.8982887268066406,-0.09012222290039062,0.19175104796886444,22.75,0.0,1.981973648071289,-0.0940561294555664,0.19175104796886444,12.75,0.0,2.4404525756835938,-1.1780261993408203,0.0,15.75,0.0,2.4526119232177734,-1.2513399124145508,0.0,19.5,0.0,2.523064613342285,-1.2935400009155273,0.0,17.0,,,,,,,,,,,,,,,,,,,,,,,,,,,,,,,,,,,,,,,,,,,,,
0.0,-0.7026908993721008,2.272589683532715,-5.0129034207202494e-05,0.38834699988365173,0.2536308169364929,5.840895028086379e-05,0.26366302371025085,0.2876829206943512,3.158210529363714e-05,0.0,1.9161701202392578,-0.19562244415283203,0.19175104796886444,20.5,0.0,1.9969940185546875,-0.2961158752441406,0.19175104796886444,13.0,0.0,1.8213987350463867,-0.1266002655029297,0.19175104796886444,13.5,0.0,1.8829107284545898,-0.15842914581298828,0.19175104796886444,20.75,0.0,2.422928810119629,-1.200556755065918,0.0,15.25,0.0,2.4390220642089844,-1.2792348861694336,0.0,19.0,0.0,2.5159120559692383,-1.3196468353271484,0.0,16.5,0.0,2.674698829650879,-1.2624263763427734,0.0,12.25,0.0,1.9479990005493164,0.3587007522583008,0.0,20.25,,,,,,,,,,,,,,,,,,,,,,,,,,,,,,,,,,,
0.0,-0.593935489654541,2.2982735633850098,-4.092041854164563e-05,0.5231536626815796,0.30612021684646606,6.520583701785654e-05,0.35507893562316895,0.31396836042404175,3.385915988474153e-05,0.0,1.795649528503418,-0.08153915405273438,0.19175104796886444,14.0,0.0,1.833200454711914,-0.11730194091796875,0.19175104796886444,19.0,0.0,1.8693208694458008,-0.14412403106689453,0.19175104796886444,16.25,0.0,2.6013851165771484,-1.292109489440918,0.0,14.75,0.0,2.5484561920166016,-1.0929107666015625,0.0,13.0,0.0,1.9483566284179688,0.3408193588256836,0.0,20.0,,,,,,,,,,,,,,,,,,,,,,,,,,,,,,,,,,,,,,,,,,,,,,,,,,
0.0,-0.5398447513580322,2.3304553031921387,-3.423053931328468e-05,0.2793307900428772,0.16875852644443512,3.429587741266005e-05,0.0,0.0,0.0,0.0,2.491593360900879,-1.2466907501220703,0.0,14.5,0.0,2.6056766510009766,-1.2949705123901367,0.0,16.25,0.0,2.713322639465332,-1.2252330780029297,0.0,13.25,0.0,1.948714256286621,0.3476142883300781,0.0,20.25,,,,,,,,,,,,,,,,,,,,,,,,,,,,,,,,,,,,,,,,,,,,,,,,,,,,,,,,,,,,
0.0,-0.469653844833374,2.3508667945861816,-2.9807355531374924e-05,0.3483850359916687,0.18331953883171082,3.554686190909706e-05,0.05782151594758034,0.012976113706827164,7.979515999068099e-07,0.0,1.8396377563476562,0.047206878662109375,0.19175104796886444,12.75,0.0,2.4422407150268555,-1.1605024337768555,0.0,13.5,,,,,,,,,,,,,,,,,,,,,,,,,,,,,,,,,,,,,,,,,,,,,,,,,,,,,,,,,,,,,,,,,,,,,,
0.0,-0.4345262348651886,2.3692636489868164,-2.6248681024299003e-05,0.0,0.0,0.0,0.0,0.0,0.0,0.0,2.3889541625976562,-1.2313127517700195,0.0,12.0,0.0,1.969456672668457,-0.23996829986572266,0.0,14.25,0.0,1.8010139465332031,0.01609325408935547,0.0,22.5,0.0,1.8317699432373047,0.024318695068359375,0.0,26.75,0.0,1.868605613708496,-0.019311904907226562,0.0,23.5,,,,,,,,,,,,,,,,,,,,,,,,,,,,,,,,,,,,,,,,,,,,,,,,,,,,,,,
0.0,-0.4345262348651886,2.3692636489868164,-2.6248681024299003e-05,0.0,0.0,0.0,0.0,0.0,0.0,0.0,2.299189567565918,-1.2531280517578125,0.0,12.0,0.0,2.3807287216186523,-1.2527704238891602,0.0,12.25,0.0,1.9701719284057617,-0.2728700637817383,0.0,14.75,0.0,1.8514394760131836,-0.06401538848876953,0.0,25.25,0.0,1.8821954727172852,-0.12981891632080078,0.0,23.5,0.0,1.8088817596435547,-0.02110004425048828,0.0,20.75,,,,,,,,,,,,,,,,,,,,,,,,,,,,,,,,,,,,,,,,,,,,,,,,,,
0.0,-0.4345262348651886,2.3692636489868164,-2.6248681024299003e-05,0.0,0.0,0.0,0.0,0.0,0.0,0.0,1.85394287109375,-0.06759166717529297,0.0,22.25,0.0,1.8836259841918945,-0.09512901306152344,0.0,20.5,0.0,1.8121004104614258,-0.056862831115722656,0.0,17.25,,,,,,,,,,,,,,,,,,,,,,,,,,,,,,,,,,,,,,,,,,,,,,,,,,,,,,,,,,,,,,,,,
0.0,-0.4345262348651886,2.3692636489868164,-2.6248681024299003e-05,0.0,0.0,0.0,0.0,0.0,0.0,0.0,1.9955635070800781,-0.3451108932495117,0.0,12.75,0.0,1.8171072006225586,-0.0718832015991211,0.0,15.25,0.0,1.8596649169921875,-0.09512901306152344,0.0,21.25,0.0,1.8922090530395508,-0.16736984252929688,0.0,19.75,,,,,,,,,,,,,,,,,,,,,,,,,,,,,,,,,,,,,,,,,,,,,,,,,,,,,,,,,,,,
0.0,-0.4345262348651886,2.3692636489868164,-2.6248681024299003e-05,0.0,0.0,0.0,0.0,0.0,0.0,0.0,1.8721818923950195,-0.06580352783203125,0.0,16.25,,,,,,,,,,,,,,,,,,,,,,,,,,,,,,,,,,,,,,,,,,,,,,,,,,,,,,,,,,,,,,,,,,,,,,,,,,,
0.0,-0.4345262348651886,2.3692636489868164,-2.6248681024299003e-05,0.0,0.0,0.0,0.0,0.0,0.0,0.0,1.8303394317626953,-0.10406970977783203,0.0,15.5,,,,,,,,,,,,,,,,,,,,,,,,,,,,,,,,,,,,,,,,,,,,,,,,,,,,,,,,,,,,,,,,,,,,,,,,,,,
0.0,-0.4345262348651886,2.3692636489868164,-2.6248681024299003e-05,0.0,0.0,0.0,0.0,0.0,0.0,,,,,,,,,,,,,,,,,,,,,,,,,,,,,,,,,,,,,,,,,,,,,,,,,,,,,,,,,,,,,,,,,,,,,,,,,,,,,,,,
0.0,-0.4345262348651886,2.3692636489868164,-2.6248681024299003e-05,0.0,0.0,0.0,0.0,0.0,0.0,,,,,,,,,,,,,,,,,,,,,,,,,,,,,,,,,,,,,,,,,,,,,,,,,,,,,,,,,,,,,,,,,,,,,,,,,,,,,,,,
0.0,-0.47076886892318726,2.3164775371551514,-2.5973058654926717e-05,-0.060949187725782394,-0.1025131568312645,-9.73933310888242e-07,-0.040680576115846634,-0.11978840827941895,-5.524339599105588e-07,0.0,1.5317201614379883,-0.4266500473022461,-0.5752531439065933,12.25,,,,,,,,,,,,,,,,,,,,,,,,,,,,,,,,,,,,,,,,,,,,,,,,,,,,,,,,,,,,,,,,,,,,,,,,,,,
0.0,-0.46599724888801575,2.3061957359313965,-2.5215274945367128e-05,-0.05551166832447052,-0.10016985982656479,1.9644471649371553e-07,-0.037672922015190125,-0.10460907220840454,2.548527504586673e-07,0.0,1.565694808959961,-0.2535581588745117,0.19175104796886444,16.25,,,,,,,,,,,,,,,,,,,,,,,,,,,,,,,,,,,,,,,,,,,,,,,,,,,,,,,,,,,,,,,,,,,,,,,,,,,
0.0,-0.49973002076148987,2.2650208473205566,-2.4681610739207827e-05,-0.11148612201213837,-0.1757517158985138,-7.404429425150738e-08,-0.07666049897670746,-0.18901529908180237,1.2062150744895916e-07,0.0,1.5174150466918945,-0.5475282669067383,-0.5752531439065933,12.25,,,,,,,,,,,,,,,,,,,,,,,,,,,,,,,,,,,,,,,,,,,,,,,,,,,,,,,,,,,,,,,,,,,,,,,,,,,
0.0,-0.5014511346817017,2.188504219055176,-2.386229607509449e-05,-0.11419041454792023,-0.33010679483413696,-1.3222963843873003e-06,-0.059941794723272324,-0.38344231247901917,-5.896040420338977e-07,0.0,1.3986825942993164,-0.3243684768676758,-0.9587552398443222,14.75,0.0,1.3332366943359375,-0.2886056900024414,-0.9587552398443222,12.75,,,,,,,,,,,,,,,,,,,,,,,,,,,,,,,,,,,,,,,,,,,,,,,,,,,,,,,,,,,,,,,,,,,,,,
0.0,-0.4795020818710327,2.1646409034729004,-2.339106322324369e-05,-0.07927583158016205,-0.3715077042579651,-1.350302909486345e-06,-0.025668010115623474,-0.4361654222011566,-5.467635446620989e-07,0.0,1.2413263320922852,-0.1169443130493164,-0.7670041918754578,12.75,,,,,,,,,,,,,,,,,,,,,,,,,,,,,,,,,,,,,,,,,,,,,,,,,,,,,,,,,,,,,,,,,,,,,,,,,,,
0.0,-0.4795020818710327,2.1646409034729004,-2.339106322324369e-05,-0.07927583158016205,-0.3715077042579651,-1.350302909486345e-06,-0.025668010115623474,-0.4361654222011566,-5.467635446620989e-07,0.0,1.2091398239135742,-0.0711679458618164,-0.7670041918754578,16.5,0.0,1.1723041534423828,-0.03254413604736328,-0.7670041918754578,16.25,,,,,,,,,,,,,,,,,,,,,,,,,,,,,,,,,,,,,,,,,,,,,,,,,,,,,,,,,,,,,,,,,,,,,,
0.0,-0.4795020818710327,2.1646409034729004,-2.339106322324369e-05,-0.07927583158016205,-0.3715077042579651,-1.350302909486345e-06,-0.025668010115623474,-0.4361654222011566,-5.467635446620989e-07,,,,,,,,,,,,,,,,,,,,,,,,,,,,,,,,,,,,,,,,,,,,,,,,,,,,,,,,,,,,,,,,,,,,,,,,,,,,,,,,
0.0,-0.4795020818710327,2.1646409034729004,-2.339106322324369e-05,-0.07927583158016205,-0.3715077042579651,-1.350302909486345e-06,-0.025668010115623474,-0.4361654222011566,-5.467635446620989e-07,,,,,,,,,,,,,,,,,,,,,,,,,,,,,,,,,,,,,,,,,,,,,,,,,,,,,,,,,,,,,,,,,,,,,,,,,,,,,,,,
0.0,-0.536410391330719,2.134897470474243,-2.2691439880873077e-05,-0.17424777150154114,-0.403282105922699,-4.786720637639519e-07,-0.10374073684215546,-0.44895100593566895,7.300241122720763e-08,0.0,1.2291669845581055,-0.8175373077392578,-0.19175104796886444,14.5,0.0,1.3217926025390625,-0.9917020797729492,-0.19175104796886444,12.75,0.0,0.8783340454101562,0.2589225769042969,-0.19175104796886444,12.25,0.0,0.9970664978027344,0.2961158752441406,-0.19175104796886444,13.75,,,,,,,,,,,,,,,,,,,,,,,,,,,,,,,,,,,,,,,,,,,,,,,,,,,,,,,,,,,,
0.0,-0.536410391330719,2.134897470474243,-2.2691439880873077e-05,-0.17424777150154114,-0.403282105922699,-4.786720637639519e-07,-0.10374073684215546,-0.44895100593566895,7.300241122720763e-08,0.0,0.8693933486938477,0.2868175506591797,0.0,17.0,0.0,0.962376594543457,0.33223628997802734,0.0,17.25,,,,,,,,,,,,,,,,,,,,,,,,,,,,,,,,,,,,,,,,,,,,,,,,,,,,,,,,,,,,,,,,,,,,,,
0.0,-0.5905868411064148,2.102107048034668,-2.2167347196955234e-05,-0.2656598687171936,-0.43748700618743896,2.0540170453386963e-07,-0.1791018694639206,-0.4631812572479248,6.129087068984518e-07,0.0,1.027822494506836,-0.7424354553222656,-0.19175104796886444,13.5,0.0,0.9137392044067383,-0.057220458984375,-0.19175104796886444,17.75,0.0,1.0088682174682617,-0.04506111145019531,-0.19175104796886444,17.25,0.0,0.8826255798339844,0.24318695068359375,0.0,24.5,0.0,0.9666681289672852,0.2810955047607422,0.0,24.75,0.0,1.0489225387573242,0.24318695068359375,0.0,17.25,,,,,,,,,,,,,,,,,,,,,,,,,,,,,,,,,,,,,,,,,,,,,,,,,,
0.0,-0.5905868411064148,2.102107048034668,-2.2167347196955234e-05,-0.2656598687171936,-0.43748700618743896,2.0540170453386963e-07,-0.1791018694639206,-0.4631812572479248,6.129087068984518e-07,0.0,0.903010368347168,0.15163421630859375,-0.19175104796886444,27.5,0.0,0.9491443634033203,0.2664327621459961,-0.19175104796886444,26.25,0.0,1.0128021240234375,0.3032684326171875,-0.19175104796886444,16.75,0.0,0.8740425109863281,0.2721548080444336,0.0,23.25,0.0,0.9545087814331055,0.3154277801513672,0.0,23.5,0.0,1.0210275650024414,0.3229379653930664,0.0,16.0,,,,,,,,,,,,,,,,,,,,,,,,,,,,,,,,,,,,,,,,,,,,,,,,,,
0.0,-0.5905868411064148,2.102107048034668,-2.2167347196955234e-05,-0.2656598687171936,-0.43748700618743896,2.0540170453386963e-07,-0.1791018694639206,-0.4631812572479248,6.129087068984518e-07,0.0,0.9080171585083008,-0.11801719665527344,-0.19175104796886444,19.75,0.0,1.0718107223510742,0.2295970916748047,0.19175104796886444,18.5,0.0,1.0138750076293945,0.28967857360839844,-0.19175104796886444,24.75,0.0,0.8715391159057617,0.2803802490234375,-0.19175104796886444,22.25,0.0,2.6046037673950195,-1.3489723205566406,0.0,15.0,0.0,1.0274648666381836,0.2753734588623047,0.0,18.75,0.0,0.8604526519775391,0.31256675720214844,0.0,25.25,0.0,0.9655952453613281,0.3129243850708008,0.0,26.0,,,,,,,,,,,,,,,,,,,,,,,,,,,,,,,,,,,,,,,,
0.0,-0.606319785118103,2.082516670227051,-2.0457699065445922e-05,-0.3087333142757416,-0.3960121273994446,3.826325155387167e-06,-0.23272135853767395,-0.36077430844306946,3.1746053537062835e-06,0.0,1.3843774795532227,-0.5546808242797852,0.3835020959377289,13.0,0.0,1.4634132385253906,-0.6004571914672852,0.19175104796886444,13.25,0.0,0.8976459503173828,-0.17952919006347656,-0.19175104796886444,16.25,0.0,1.2878179550170898,-0.06008148193359375,0.19175104796886444,12.0,0.0,0.9673833847045898,0.4127025604248047,0.19175104796886444,17.0,0.0,0.7681846618652344,0.49817562103271484,0.19175104796886444,14.0,0.0,2.6314258575439453,-1.3039112091064453,0.0,16.5,0.0,2.6439428329467773,-1.363992691040039,0.0,13.25,0.0,1.044631004333496,0.2371072769165039,0.0,19.0,0.0,0.9663105010986328,0.3007650375366211,0.0,26.0,,,,,,,,,,,,,,,,,,,,,,,,,,,,,,
0.0,-0.6693342924118042,2.0632832050323486,-1.9207665900466964e-05,-0.42260730266571045,-0.38411852717399597,6.262063379836036e-06,-0.33874043822288513,-0.3038844168186188,4.840788733417867e-06,0.0,1.4573335647583008,-1.1000633239746094,0.5752531439065933,14.75,0.0,1.522064208984375,-0.6519556045532227,0.19175104796886444,14.75,0.0,0.8804798126220703,0.25069713592529297,0.19175104796886444,32.5,0.0,0.9820461273193359,0.2524852752685547,0.19175104796886444,33.25,0.0,1.0317564010620117,0.2467632293701172,0.19175104796886444,24.75,0.0,2.6046037673950195,-1.224517822265625,0.0,12.25,0.0,2.6546716690063477,-1.2699365615844727,0.0,17.0,0.0,2.706170082092285,-1.262068748474121,0.0,14.25,0.0,0.8808374404907227,0.24998188018798828,0.0,28.0,0.0,0.9759664535522461,0.2764463424682617,0.0,28.25,0.0,1.0385513305664062,0.23925304412841797,0.0,20.75,,,,,,,,,,,,,,,,,,,,,,,,,
0.0,-0.6693342924118042,2.0632832050323486,-1.9207665900466964e-05,-0.42260730266571045,-0.38411852717399597,6.262063379836036e-06,-0.33874043822288513,-0.3038844168186188,4.840788733417867e-06,0.0,0.9112358093261719,-0.08976459503173828,0.19175104796886444,36.75,0.0,0.91552734375,-0.07653236389160156,0.19175104796886444,30.75,0.0,1.0188817977905273,0.21636486053466797,0.19175104796886444,17.75,0.0,2.6443004608154297,-1.2928247451782227,0.0,16.75,0.0,2.6907920837402344,-1.2913942337036133,0.0,13.75,0.0,0.91552734375,-0.0032186508178710938,0.0,28.5,0.0,0.9781122207641602,0.23818016052246094,0.0,29.5,0.0,1.0303258895874023,0.25641918182373047,0.0,21.25,,,,,,,,,,,,,,,,,,,,,,,,,,,,,,,,,,,,,,,,
0.0,-0.6693342924118042,2.0632832050323486,-1.9207665900466964e-05,-0.42260730266571045,-0.38411852717399597,6.262063379836036e-06,-0.33874043822288513,-0.3038844168186188,4.840788733417867e-06,0.0,0.835418701171875,0.37407875061035156,0.19175104796886444,28.25,0.0,0.9491443634033203,0.3941059112548828,0.19175104796886444,28.75,0.0,0.9992122650146484,0.3758668899536133,0.19175104796886444,19.25,0.0,2.626776695251465,-1.3314485549926758,0.0,15.75,0.0,2.689361572265625,-1.3167858123779297,0.0,13.5,0.0,0.914454460144043,0.043272972106933594,0.0,30.0,0.0,1.0274648666381836,0.26214122772216797,0.0,22.25,,,,,,,,,,,,,,,,,,,,,,,,,,,,,,,,,,,,,,,,,,,,,
0.0,-0.6693342924118042,2.0632832050323486,-1.9207665900466964e-05,-0.42260730266571045,-0.38411852717399597,6.262063379836036e-06,-0.33874043822288513,-0.3038844168186188,4.840788733417867e-06,0.0,0.9680986404418945,-0.4609823226928711,0.3835020959377289,14.0,0.0,1.019597053527832,-0.5214214324951172,0.19175104796886444,12.75,0.0,0.858306884765625,-0.3190040588378906,0.3835020959377289,14.0,0.0,1.031041145324707,0.34439563751220703,0.19175104796886444,14.25,0.0,0.8475780487060547,0.3458261489868164,0.19175104796886444,21.0,0.0,0.9838342666625977,0.3669261932373047,0.19175104796886444,22.5,0.0,2.6242733001708984,-1.336812973022461,0.0,16.0,0.0,2.685427665710449,-1.3461112976074219,0.0,13.5,0.0,0.9148120880126953,0.03790855407714844,0.0,30.5,,,,,,,,,,,,,,,,,,,,,,,,,,,,,,,,,,,
0.0,-0.6693342924118042,2.0632832050323486,-1.9207665900466964e-05,-0.42260730266571045,-0.38411852717399597,6.262063379836036e-06,-0.33874043822288513,-0.3038844168186188,4.840788733417867e-06,0.0,1.1386871337890625,-0.0017881393432617188,0.19175104796886444,21.75,0.0,1.1004209518432617,0.18525123596191406,0.3835020959377289,25.5,0.0,0.8779764175415039,0.25963783264160156,0.3835020959377289,21.0,0.0,2.636075019836426,-1.319289207458496,0.0,15.25,0.0,2.699732780456543,-1.3303756713867188,0.0,13.25,0.0,0.9151697158813477,0.024318695068359375,0.0,29.0,,,,,,,,,,,,,,,,,,,,,,,,,,,,,,,,,,,,,,,,,,,,,,,,,,
0.0,-0.6902282238006592,2.0337181091308594,-1.8526405256125145e-05,-0.46944138407707214,-0.38821250200271606,7.78428693593014e-06,-0.386884480714798,-0.27263957262039185,6.0549095906026196e-06,0.0,1.1529922485351562,-0.550389289855957,0.19175104796886444,13.25,0.0,1.1118650436401367,-0.4423856735229492,0.19175104796886444,20.75,0.0,0.9087324142456055,0.10979175567626953,0.3835020959377289,19.0,0.0,1.0907649993896484,0.13697147369384766,0.3835020959377289,23.5,0.0,2.6428699493408203,-1.3006925582885742,0.0,14.0,0.0,0.91552734375,0.010013580322265625,0.0,29.0,,,,,,,,,,,,,,,,,,,,,,,,,,,,,,,,,,,,,,,,,,,,,,,,,,
0.0,-0.7200714945793152,2.0056915283203125,-1.7822654626797885e-05,-0.5324701070785522,-0.39022114872932434,9.37805998546537e-06,-0.45034468173980713,-0.2374315708875656,7.303301117644878e-06,0.0,1.1769533157348633,-0.789642333984375,0.19175104796886444,12.75,0.0,1.1283159255981445,-0.4341602325439453,0.3835020959377289,16.75,0.0,1.0696649551391602,-0.18668174743652344,0.3835020959377289,16.0,0.0,0.9076595306396484,-0.1201629638671875,0.3835020959377289,13.75,0.0,2.684354782104492,-1.2395381927490234,0.0,14.75,0.0,2.7669668197631836,-1.2034177780151367,0.0,12.5,,,,,,,,,,,,,,,,,,,,,,,,,,,,,,,,,,,,,,,,,,,,,,,,,,
0.0,-0.6913126707077026,2.0058650970458984,-1.750438241288066e-05,-0.4950156509876251,-0.3666914105415344,1.0308471246389672e-05,-0.4281982481479645,-0.19962479174137115,8.021874236874282e-06,0.0,1.1347532272338867,0.03361701965332031,0.3835020959377289,23.25,0.0,1.165151596069336,0.12123584747314453,0.3835020959377289,22.0,0.0,1.2406110763549805,0.20241737365722656,0.3835020959377289,12.5,0.0,2.6847124099731445,-1.2195110321044922,0.0,14.75,0.0,2.785921096801758,-1.1472702026367188,0.0,12.5,,,,,,,,,,,,,,,,,,,,,,,,,,,,,,,,,,,,,,,,,,,,,,,,,,,,,,,
0.0,-0.7132014632225037,1.9915848970413208,-1.7174128515762277e-05,-0.539817214012146,-0.36478468775749207,1.11968302007881e-05,-0.47302794456481934,-0.1748703122138977,8.722203347133473e-06,0.0,1.097559928894043,-0.6537437438964844,0.5752531439065933,15.5,0.0,0.9101629257202148,-0.09834766387939453,0.5752531439065933,13.25,0.0,1.2946128845214844,0.24783611297607422,0.5752531439065933,17.25,0.0,1.250624656677246,0.31828880310058594,0.5752531439065933,20.75,0.0,2.656102180480957,-1.312851905822754,0.0,14.5,,,,,,,,,,,,,,,,,,,,,,,,,,,,,,,,,,,,,,,,,,,,,,,,,,,,,,,
0.0,-0.6859502196311951,1.993635654449463,-1.685315146460198e-05,-0.5061252117156982,-0.3364824056625366,1.2221643373777624e-05,-0.45566627383232117,-0.13008102774620056,9.505825801170431e-06,0.0,0.9115934371948242,-0.08296966552734375,0.5752531439065933,14.25,0.0,1.165151596069336,0.07295608520507812,0.5752531439065933,19.5,0.0,1.2584924697875977,0.26607513427734375,0.3835020959377289,22.75,,,,,,,,,,,,,,,,,,,,,,,,,,,,,,,,,,,,,,,,,,,,,,,,,,,,,,,,,,,,,,,,,
0.0,-0.6667733192443848,1.976958990097046,-1.5473477105842903e-05,-0.5006993412971497,-0.2938266694545746,1.539077675261069e-05,-0.47479236125946045,-0.03503309190273285,1.1864942280226387e-05,0.0,1.3729333877563477,-1.1687278747558594,0.3835020959377289,13.25,0.0,1.317143440246582,-0.926971435546875,0.3835020959377289,13.0,0.0,1.2531280517578125,-0.031828880310058594,0.5752531439065933,20.75,0.0,1.289963722229004,0.055789947509765625,0.19175104796886444,25.25,0.0,1.3196468353271484,0.2199411392211914,0.19175104796886444,23.0,,,,,,,,,,,,,,,,,,,,,,,,,,,,,,,,,,,,,,,,,,,,,,,,,,,,,,,
0.0,-0.6967831254005432,1.9363116025924683,-1.2439810234354809e-05,-0.5447946786880493,-0.23488730192184448,1.9976037947344594e-05,-0.5053021311759949,0.0966619998216629,1.4371720681083389e-05,0.0,1.3267993927001953,-0.8679628372192383,0.3835020959377289,15.0,0.0,1.3403892517089844,-0.2410411834716797,0.5752531439065933,18.75,0.0,1.272439956665039,-0.12624263763427734,0.5752531439065933,12.75,0.0,1.317143440246582,-0.15342235565185547,0.5752531439065933,19.75,,,,,,,,,,,,,,,,,,,,,,,,,,,,,,,,,,,,,,,,,,,,,,,,,,,,,,,,,,,,
0.0,-0.7200452089309692,1.9262274503707886,-8.82116273714928e-06,-0.577201783657074,-0.12268573045730591,2.4988617951748893e-05,-0.5326894521713257,0.2785778045654297,1.6881789633771405e-05,0.0,1.6264915466308594,-1.3668537139892578,1.1505062878131866,16.75,0.0,1.3775825500488281,-0.10263919830322266,0.5752531439065933,20.0,0.0,1.3883113861083984,-0.07367134094238281,0.5752531439065933,21.5,0.0,1.4498233795166016,-0.030755996704101562,0.5752531439065933,14.25,0.0,0.9140968322753906,-0.05328655242919922,0.0,17.5,0.0,1.1304616928100586,0.05042552947998047,0.0,20.5,,,,,,,,,,,,,,,,,,,,,,,,,,,,,,,,,,,,,,,,,,,,,,,,,,
0.0,-0.8258957862854004,1.9150937795639038,-4.783243639394641e-06,-0.7598153352737427,-0.013490036129951477,2.970987952721771e-05,-0.696605920791626,0.45873045921325684,1.909304592118133e-05,0.0,1.7402172088623047,-1.4895200729370117,1.342257335782051,16.0,0.0,1.7688274383544922,-1.5270709991455078,1.342257335782051,18.0,0.0,1.833200454711914,-1.5392303466796875,0.19175104796886444,12.25,0.0,1.4473199844360352,-0.3916025161743164,0.3835020959377289,18.0,0.0,1.4101266860961914,-0.18167495727539062,0.5752531439065933,19.0,0.0,1.427292823791504,-0.20170211791992188,0.5752531439065933,22.5,0.0,1.4383792877197266,-0.5371570587158203,0.0,14.25,,,,,,,,,,,,,,,,,,,,,,,,,,,,,,,,,,,,,,,,,,,,,
0.0,-0.8032283782958984,1.9395018815994263,-1.2217964240335277e-06,-0.6634206771850586,0.1134672611951828,3.3094966056523845e-05,-0.5675420761108398,0.5596545338630676,2.004384259635117e-05,0.0,1.874685287475586,-1.4673471450805664,0.19175104796886444,13.75,0.0,1.4952421188354492,-0.0514984130859375,0.5752531439065933,22.75,0.0,1.5099048614501953,-0.0858306884765625,0.5752531439065933,21.0,0.0,1.462697982788086,-0.011444091796875,0.5752531439065933,16.25,,,,,,,,,,,,,,,,,,,,,,,,,,,,,,,,,,,,,,,,,,,,,,,,,,,,,,,,,,,,
0.0,-0.7010656595230103,2.006781578063965,2.2118199467513477e-06,-0.4422101378440857,0.3219795823097229,3.6350134905660525e-05,-0.35328367352485657,0.741666316986084,2.0809853594982997e-05,0.0,2.1082162857055664,-1.2295246124267578,0.5752531439065933,14.25,0.0,2.1429061889648438,-1.2227296829223633,0.5752531439065933,13.0,0.0,1.498103141784668,0.012159347534179688,0.5752531439065933,15.75,0.0,1.5546083450317383,0.003933906555175781,0.5752531439065933,25.5,0.0,1.566767692565918,0.010013580322265625,0.5752531439065933,27.0,0.0,1.627206802368164,-0.042557716369628906,0.5752531439065933,19.25,0.0,1.6279220581054688,-0.17452239990234375,0.0,15.25,0.0,1.484513282775879,-0.05614757537841797,0.0,24.75,0.0,1.535654067993164,-0.0826120376586914,0.0,23.75,,,,,,,,,,,,,,,,,,,,,,,,,,,,,,,,,,,
0.0,-0.6794523000717163,2.0591912269592285,5.017875537305372e-06,-0.36944106221199036,0.45638391375541687,3.775113873416558e-05,-0.27077770233154297,0.8184599876403809,2.0436871636775322e-05,0.0,2.0313262939453125,-1.4015436172485352,0.3835020959377289,16.0,0.0,2.0688772201538086,-1.259922981262207,0.3835020959377289,17.0,0.0,1.795649528503418,-0.354766845703125,0.7670041918754578,13.75,0.0,1.6736984252929688,-0.03826618194580078,0.7670041918754578,24.0,0.0,1.6275644302368164,0.08153915405273438,0.7670041918754578,27.5,0.0,1.4941692352294922,0.23996829986572266,0.7670041918754578,12.25,0.0,1.589655876159668,0.1569986343383789,0.7670041918754578,23.75,0.0,1.4920234680175781,0.2396106719970703,0.7670041918754578,12.25,,,,,,,,,,,,,,,,,,,,,,,,,,,,,,,,,,,,,,,,
0.0,-0.636995255947113,2.0988588333129883,7.216419817268616e-06,-0.26316457986831665,0.5535576343536377,3.809019835898653e-05,-0.1585865318775177,0.8382382392883301,1.9461718693492003e-05,0.0,1.6254186630249023,-1.4226436614990234,0.19175104796886444,15.0,0.0,1.7151832580566406,-0.1709461212158203,0.7670041918754578,27.5,0.0,1.7845630645751953,-0.24139881134033203,0.7670041918754578,19.0,0.0,1.6647577285766602,-0.06258487701416016,0.3835020959377289,20.0,0.0,1.7033815383911133,-0.1380443572998047,0.7670041918754578,27.75,0.0,1.784205436706543,-1.5385150909423828,0.0,17.5,0.0,1.7938613891601562,-0.5854368209838867,0.0,14.5,0.0,1.6837120056152344,-0.1723766326904297,0.0,22.25,0.0,1.5964508056640625,-0.011444091796875,0.0,26.0,,,,,,,,,,,,,,,,,,,,,,,,,,,,,,,,,,,
0.0,-0.5816702842712402,2.144327402114868,9.307008440373465e-06,-0.13619735836982727,0.6201804876327515,3.792069765040651e-05,-0.02898968756198883,0.8003894686698914,1.8150301912100986e-05,0.0,1.9469261169433594,-0.66375732421875,0.3835020959377289,14.75,0.0,1.8568038940429688,-0.3243684768676758,0.3835020959377289,21.25,0.0,1.795649528503418,-0.1430511474609375,0.5752531439065933,24.0,0.0,1.7151832580566406,0.12302398681640625,0.5752531439065933,21.25,0.0,1.6061067581176758,0.29718875885009766,0.5752531439065933,14.75,0.0,1.8038749694824219,-1.5263557434082031,0.0,18.25,0.0,1.6890764236450195,-0.0629425048828125,0.0,22.5,0.0,1.6064643859863281,0.01430511474609375,0.0,26.25,,,,,,,,,,,,,,,,,,,,,,,,,,,,,,,,,,,,,,,,
0.0,-0.6595795154571533,2.163499355316162,9.89565160125494e-06,-0.2408057153224945,0.6040557622909546,3.556640149326995e-05,-0.10387113690376282,0.6910310983657837,1.572853943798691e-05,0.0,2.178668975830078,-1.4061927795410156,0.3835020959377289,13.5,0.0,2.148270606994629,-1.2284517288208008,1.5340083837509155,16.25,0.0,2.1600723266601562,-1.3360977172851562,0.19175104796886444,18.0,0.0,2.03704833984375,-0.5621910095214844,0.3835020959377289,12.75,0.0,1.804947853088379,-0.2707242965698242,0.3835020959377289,19.75,0.0,1.8889904022216797,-0.24139881134033203,0.3835020959377289,18.5,0.0,1.5556812286376953,0.4699230194091797,0.7670041918754578,13.75,0.0,1.5528202056884766,0.5003213882446289,0.7670041918754578,19.0,0.0,1.4977455139160156,0.8236169815063477,0.7670041918754578,17.25,0.0,1.8124580383300781,-0.607609748840332,0.0,17.75,0.0,1.5496015548706055,-0.013589859008789062,0.0,23.75,0.0,1.604318618774414,0.019311904907226562,0.0,26.25,0.0,1.6858577728271484,-0.051856040954589844,0.0,22.0,,,,,,,,,,,,,,,
0.0,-0.5964137315750122,2.205432891845703,1.0099161954713054e-05,-0.092745840549469,0.6157172918319702,3.291919711045921e-05,0.04880055785179138,0.5875999927520752,1.3120268704369664e-05,0.0,2.1936893463134766,-1.4047622680664062,0.19175104796886444,14.25,0.0,2.206563949584961,-1.4705657958984375,0.19175104796886444,13.0,0.0,2.190113067626953,-1.4022588729858398,0.19175104796886444,14.5,0.0,2.0155906677246094,-0.21922588348388672,0.5752531439065933,15.5,0.0,1.798868179321289,0.12731552124023438,0.5752531439065933,19.25,0.0,1.8235445022583008,0.09691715240478516,0.5752531439065933,23.0,0.0,1.8682479858398438,0.08797645568847656,0.5752531439065933,18.25,0.0,4.008650779724121,0.3962516784667969,0.5752531439065933,12.75,0.0,1.4916658401489258,-0.024318695068359375,0.0,13.25,0.0,1.565694808959961,-0.008940696716308594,0.0,23.25,0.0,1.6440153121948242,-0.007510185241699219,0.0,26.5,,,,,,,,,,,,,,,,,,,,,,,,,
0.0,-0.6116235852241516,2.259744167327881,1.0977970305248164e-05,-0.09737421572208405,0.6571282744407654,3.127073432551697e-05,0.04263605177402496,0.568259060382843,1.1404321412555873e-05,0.0,2.2602081298828125,-1.3017654418945312,0.3835020959377289,16.25,0.0,2.2548437118530273,-1.373291015625,0.7670041918754578,14.5,0.0,2.2019147872924805,-1.0178089141845703,0.3835020959377289,12.25,0.0,2.030611038208008,-0.21386146545410156,0.7670041918754578,17.25,0.0,1.9179582595825195,0.1437664031982422,0.7670041918754578,20.25,0.0,1.8442869186401367,0.3218650817871094,0.7670041918754578,21.0,0.0,1.7713308334350586,0.42700767517089844,0.7670041918754578,14.75,0.0,2.055644989013672,-1.3911724090576172,0.0,16.5,0.0,1.5735626220703125,-0.0007152557373046875,0.0,23.0,0.0,1.660466194152832,0.013947486877441406,0.0,26.75,,,,,,,,,,,,,,,,,,,,,,,,,,,,,,
0.0,-0.5583863854408264,2.318544626235962,1.1203548638150096e-05,0.012139037251472473,0.6989467740058899,2.8906802981509827e-05,0.13574561476707458,0.5391403436660767,9.329697604698595e-06,0.0,2.1654367446899414,-1.4190673828125,0.19175104796886444,16.75,0.0,2.3453235626220703,-1.2824535369873047,0.19175104796886444,14.25,0.0,2.1768808364868164,-0.33473968505859375,0.7670041918754578,17.25,0.0,2.0914077758789062,-0.13768672943115234,0.7670041918754578,25.5,0.0,2.0627975463867188,-0.0286102294921875,0.7670041918754578,24.5,0.0,1.978754997253418,0.24318695068359375,0.7670041918754578,17.75,0.0,2.0502805709838867,-1.4154911041259766,0.0,17.0,,,,,,,,,,,,,,,,,,,,,,,,,,,,,,,,,,,,,,,,,,,,,
0.0,-0.4830586910247803,2.3914642333984375,1.167910795629723e-05,0.14372557401657104,0.7775733470916748,2.7014270017389208e-05,0.23183156549930573,0.5741420984268188,7.715583706158213e-06,0.0,2.0824670791625977,-1.4040470123291016,0.19175104796886444,15.5,0.0,2.1725893020629883,-0.09942054748535156,0.9587552398443222,28.5,0.0,2.2183656692504883,-0.16987323760986328,0.7670041918754578,24.0,0.0,2.112865447998047,0.08118152618408203,0.9587552398443222,22.5,0.0,2.0134449005126953,0.23746490478515625,0.9587552398443222,12.25,0.0,1.8253326416015625,0.08797645568847656,0.0,25.75,,,,,,,,,,,,,,,,,,,,,,,,,,,,,,,,,,,,,,,,,,,,,,,,,,
0.0,-0.4426029622554779,2.4649975299835205,1.1472831829451025e-05,0.20687274634838104,0.8337290287017822,2.4367091100430116e-05,0.26495733857154846,0.5767205357551575,5.755531674367376e-06,0.0,2.5534629821777344,-1.0828971862792969,0.5752531439065933,16.25,0.0,2.628207206726074,-1.1115074157714844,0.5752531439065933,16.0,0.0,2.2498369216918945,-0.2338886260986328,0.9587552398443222,26.5,0.0,2.373933792114258,-0.3794431686401367,0.9587552398443222,16.5,0.0,2.2176504135131836,-0.07903575897216797,0.9587552398443222,28.25,0.0,2.161860466003418,0.07331371307373047,0.5752531439065933,19.75,0.0,2.173304557800293,-1.2552738189697266,0.0,15.5,0.0,2.402186393737793,-1.191258430480957,0.0,13.0,0.0,1.7459392547607422,0.16808509826660156,0.0,21.25,,,,,,,,,,,,,,,,,,,,,,,,,,,,,,,,,,,
0.0,-0.39657774567604065,2.5370213985443115,1.1194269973202609e-05,0.2717028856277466,0.8788602948188782,2.177525675506331e-05,0.2973567843437195,0.5667855739593506,3.93794834963046e-06,0.0,2.4747848510742188,-1.1050701141357422,1.342257335782051,14.75,0.0,2.672910690307617,-1.1107921600341797,0.5752531439065933,14.5,0.0,2.3975372314453125,-0.28252601623535156,0.9587552398443222,20.75,0.0,2.330660820007324,-0.2117156982421875,0.9587552398443222,25.75,0.0,2.264857292175293,-0.013232231140136719,0.5752531439065933,24.0,0.0,2.142190933227539,0.2617835998535156,0.5752531439065933,16.5,,,,,,,,,,,,,,,,,,,,,,,,,,,,,,,,,,,,,,,,,,,,,,,,,,
0.0,-0.3329043388366699,2.5997726917266846,1.0856669177883305e-05,0.35666635632514954,0.889317512512207,1.9229293684475124e-05,0.34589558839797974,0.5071499347686768,2.2166102553455858e-06,0.0,2.5262832641601562,-0.9648799896240234,1.5340083837509155,15.25,0.0,2.6464462280273438,-1.1276006698608398,0.3835020959377289,13.5,0.0,2.401113510131836,-0.1798868179321289,0.7670041918754578,20.5,0.0,2.3267269134521484,0.014662742614746094,0.7670041918754578,26.0,0.0,2.2777318954467773,0.13589859008789062,0.5752531439065933,24.75,0.0,2.1904706954956055,0.27751922607421875,0.5752531439065933,13.25,,,,,,,,,,,,,,,,,,,,,,,,,,,,,,,,,,,,,,,,,,,,,,,,,,
0.0,-0.3228599727153778,2.651933193206787,1.1128163350804243e-05,0.3424202501773834,0.8383073806762695,1.7472535546403378e-05,0.30914223194122314,0.36034095287323,9.94781998997496e-07,0.0,2.696871757507324,-1.3664960861206055,0.19175104796886444,12.25,0.0,2.693295478820801,-1.1283159255981445,0.19175104796886444,14.0,0.0,2.593874931335449,-0.3075599670410156,0.7670041918754578,15.0,0.0,2.4193525314331055,-0.17273426055908203,0.3835020959377289,23.75,0.0,2.468705177307129,-0.12195110321044922,0.3835020959377289,23.5,0.0,2.179384231567383,0.5743503570556641,0.3835020959377289,20.25,,,,,,,,,,,,,,,,,,,,,,,,,,,,,,,,,,,,,,,,,,,,,,,,,,
0.0,-0.2977956235408783,2.6881489753723145,1.0373982149758376e-05,0.3506527543067932,0.7399568557739258,1.462091677240096e-05,0.29585227370262146,0.16149897873401642,-8.043193702178542e-07,0.0,2.704739570617676,-1.134037971496582,0.19175104796886444,22.0,0.0,2.7598142623901367,-1.1780261993408203,0.19175104796886444,18.0,0.0,2.64894962310791,-0.2181529998779297,0.5752531439065933,22.5,0.0,2.5273561477661133,0.028252601623535156,0.5752531439065933,26.0,0.0,2.417922019958496,0.16951560974121094,0.3835020959377289,25.25,0.0,2.326369285583496,0.23746490478515625,0.3835020959377289,21.5,,,,,,,,,,,,,,,,,,,,,,,,,,,,,,,,,,,,,,,,,,,,,,,,,,
0.0,-0.2817559540271759,2.719416618347168,9.536039215163328e-06,0.34260356426239014,0.6432787179946899,1.1882936632900964e-05,0.2685476541519165,-0.0021875500679016113,-2.3953430172696244e-06,0.0,2.7043819427490234,-1.2363195419311523,0.3835020959377289,20.0,0.0,2.8270483016967773,-1.0993480682373047,0.3835020959377289,18.0,0.0,2.3696422576904297,0.055789947509765625,0.3835020959377289,17.25,0.0,2.4755001068115234,0.021457672119140625,0.19175104796886444,24.0,0.0,2.5473833084106445,-0.010371208190917969,0.3835020959377289,26.75,0.0,2.5992393493652344,0.04684925079345703,0.3835020959377289,23.0,,,,,,,,,,,,,,,,,,,,,,,,,,,,,,,,,,,,,,,,,,,,,,,,,,
0.0,-0.2583790421485901,2.749760627746582,8.63438344822498e-06,0.34677398204803467,0.5691872835159302,9.282444807467982e-06,0.25177717208862305,-0.10310513526201248,-3.774204287765315e-06,0.0,2.702951431274414,-1.0957717895507812,0.3835020959377289,15.5,0.0,2.846360206604004,-1.0825395584106445,0.3835020959377289,14.25,0.0,2.5606155395507812,-0.10836124420166016,0.3835020959377289,24.0,0.0,2.6203393936157227,-0.09083747863769531,0.3835020959377289,21.0,0.0,2.4808645248413086,0.056862831115722656,0.3835020959377289,20.75,0.0,2.3556947708129883,0.2224445343017578,0.3835020959377289,13.5,0.0,2.631068229675293,1.1830329895019531,0.19175104796886444,13.25,0.0,2.6264190673828125,-0.19419193267822266,0.0,18.75,,,,,,,,,,,,,,,,,,,,,,,,,,,,,,,,,,,,,,,,
0.0,-0.23000098764896393,2.7691898345947266,7.471753633581102e-06,0.35431161522865295,0.4580394923686981,6.556485004693968e-06,0.23901426792144775,-0.2537423372268677,-5.154332484380575e-06,0.0,2.881765365600586,-1.1011362075805664,0.19175104796886444,19.75,0.0,2.8313398361206055,-1.0246038436889648,0.19175104796886444,19.0,0.0,2.954721450805664,-1.072525978088379,0.19175104796886444,14.75,0.0,2.6514530181884766,-0.05829334259033203,0.3835020959377289,15.25,0.0,2.463698387145996,0.22780895233154297,0.19175104796886444,22.25,0.0,2.407193183898926,0.34868717193603516,0.19175104796886444,23.5,0.0,2.3435354232788086,0.4266500473022461,0.19175104796886444,16.5,0.0,2.808809280395508,-1.135110855102539,0.0,17.5,0.0,2.4862289428710938,-0.01895427703857422,0.0,27.75,0.0,2.624630928039551,0.015735626220703125,0.0,21.0,,,,,,,,,,,,,,,,,,,,,,,,,,,,,,
0.0,-0.20434316992759705,2.778670072555542,6.6017400968121365e-06,0.3554803133010864,0.3494589924812317,4.353530130174477e-06,0.22083522379398346,-0.37322816252708435,-6.142206984804943e-06,0.0,2.967238426208496,-0.7399320602416992,0.19175104796886444,15.75,0.0,2.4933815002441406,-0.31828880310058594,-0.19175104796886444,19.25,0.0,2.5838613510131836,-0.23996829986572266,0.19175104796886444,23.5,0.0,2.6804208755493164,-0.1569986343383789,0.19175104796886444,22.25,0.0,2.833127975463867,-0.25141239166259766,0.19175104796886444,18.0,0.0,2.2891759872436523,0.45669078826904297,0.19175104796886444,12.25,0.0,2.5119781494140625,-0.047206878662109375,0.0,27.25,0.0,2.3081302642822266,0.17309188842773438,0.0,26.75,,,,,,,,,,,,,,,,,,,,,,,,,,,,,,,,,,,,,,,,
0.0,-0.1492774784564972,2.769451141357422,6.129668236098951e-06,0.399577260017395,0.21741488575935364,2.754640036073397e-06,0.23804982006549835,-0.5077242255210876,-6.730952463840367e-06,0.0,2.3996829986572266,-0.07867813110351562,-0.19175104796886444,13.25,0.0,2.445816993713379,-0.08797645568847656,-0.19175104796886444,22.75,0.0,2.446889877319336,-0.13017654418945312,-0.19175104796886444,21.5,0.0,2.853870391845703,0.19919872283935547,0.19175104796886444,13.5,0.0,2.393960952758789,0.06651878356933594,0.0,29.5,0.0,2.5284290313720703,-0.02467632293701172,0.0,27.5,0.0,2.2988319396972656,0.23603439331054688,0.0,26.5,,,,,,,,,,,,,,,,,,,,,,,,,,,,,,,,,,,,,,,,,,,,,
0.0,-0.11418929696083069,2.7412331104278564,5.291679372021463e-06,0.4049259424209595,0.06318429857492447,8.739070835872553e-07,0.2210313081741333,-0.6512240171432495,-7.442814421665389e-06,0.0,2.753734588623047,-0.7045269012451172,-0.19175104796886444,13.0,0.0,2.6378631591796875,-0.5525350570678711,-0.19175104796886444,15.5,0.0,2.487659454345703,-0.046133995056152344,-0.19175104796886444,17.5,0.0,2.3413896560668945,0.2893209457397461,-0.19175104796886444,14.5,0.0,2.3882389068603516,0.22995471954345703,-0.19175104796886444,20.5,0.0,2.390742301940918,0.08225440979003906,0.0,30.5,0.0,2.3213624954223633,0.23853778839111328,0.0,26.75,,,,,,,,,,,,,,,,,,,,,,,,,,,,,,,,,,,,,,,,,,,,,
0.0,-0.053799450397491455,2.710963487625122,4.5497954488382675e-06,0.451140433549881,-0.06119493395090103,-7.50200342736207e-07,0.23872911930084229,-0.7252488136291504,-7.952791747811716e-06,0.0,2.7008056640625,-1.0753870010375977,-0.19175104796886444,13.5,0.0,2.625703811645508,-0.08654594421386719,-0.19175104796886444,17.5,0.0,2.410411834716797,0.0514984130859375,-0.19175104796886444,25.25,0.0,2.4733543395996094,-0.07545948028564453,-0.19175104796886444,23.0,0.0,2.3603439331054688,0.18346309661865234,-0.19175104796886444,19.25,0.0,2.5631189346313477,-0.08368492126464844,0.0,29.25,0.0,2.678990364074707,-0.028252601623535156,0.0,27.5,,,,,,,,,,,,,,,,,,,,,,,,,,,,,,,,,,,,,,,,,,,,,
0.0,-0.04752451181411743,2.6657917499542236,3.732982122528483e-06,0.40553945302963257,-0.21120652556419373,-2.3208929178508697e-06,0.18067152798175812,-0.8306853175163269,-8.40135271573672e-06,0.0,2.4358034133911133,-0.23889541625976562,-0.3835020959377289,22.5,0.0,2.523064613342285,-0.3654956817626953,-0.3835020959377289,23.25,0.0,2.652883529663086,-0.06651878356933594,-0.5752531439065933,22.0,0.0,2.32851505279541,0.26786327362060547,-0.3835020959377289,17.0,0.0,2.5434494018554688,-0.1798868179321289,0.0,29.5,0.0,2.6772022247314453,-0.07009506225585938,0.0,27.5,,,,,,,,,,,,,,,,,,,,,,,,,,,,,,,,,,,,,,,,,,,,,,,,,,
0.0,0.08629725873470306,2.6029982566833496,3.048019607376773e-06,0.5580209493637085,-0.37262019515037537,-3.595697080527316e-06,0.2833862900733948,-0.9343628883361816,-8.654068551550154e-06,0.0,2.4472475051879883,0.2675056457519531,-0.5752531439065933,13.75,0.0,2.222299575805664,0.47206878662109375,-0.5752531439065933,20.0,0.0,2.2612810134887695,0.45418739318847656,-0.5752531439065933,20.25,0.0,2.552032470703125,-0.1569986343383789,0.0,27.5,,,,,,,,,,,,,,,,,,,,,,,,,,,,,,,,,,,,,,,,,,,,,,,,,,,,,,,,,,,,
0.0,0.12543568015098572,2.527303457260132,2.0443253561097663e-06,0.5535429120063782,-0.5198456645011902,-5.121459707879694e-06,0.2552748918533325,-0.9939730763435364,-9.028632121044211e-06,0.0,2.995133399963379,-1.1851787567138672,-0.19175104796886444,12.25,0.0,2.7533769607543945,-0.9981393814086914,-0.3835020959377289,13.5,0.0,2.9175281524658203,-0.996708869934082,-0.3835020959377289,12.75,0.0,2.6578903198242188,-0.2900362014770508,-0.3835020959377289,15.25,0.0,2.442598342895508,-0.02288818359375,-0.5752531439065933,20.0,0.0,2.292037010192871,0.17201900482177734,-0.5752531439065933,25.0,0.0,2.180814743041992,0.2599954605102539,-0.5752531439065933,15.75,0.0,2.225518226623535,0.24425983428955078,-0.5752531439065933,26.25,0.0,2.534151077270508,-0.16236305236816406,0.0,26.75,0.0,2.386808395385742,0.004649162292480469,0.0,28.5,,,,,,,,,,,,,,,,,,,,,,,,,,,,,,
0.0,0.10201417654752731,2.4657578468322754,1.1801945447587059e-06,0.4562470614910126,-0.6285836100578308,-6.362291060213465e-06,0.15864774584770203,-1.0073429346084595,-9.214109013555571e-06,0.0,2.695798873901367,-1.1233091354370117,-0.19175104796886444,15.25,0.0,2.7823448181152344,-1.1440515518188477,-0.5752531439065933,12.25,0.0,2.269148826599121,-0.12481212615966797,-0.9587552398443222,20.25,0.0,2.3946762084960938,-0.11229515075683594,-0.5752531439065933,21.5,0.0,2.6199817657470703,-0.13589859008789062,-0.5752531439065933,15.25,0.0,2.50089168548584,0.0025033950805664062,-0.5752531439065933,22.75,0.0,2.770543098449707,-0.8261203765869141,0.0,21.0,,,,,,,,,,,,,,,,,,,,,,,,,,,,,,,,,,,,,,,,,,,,,
0.0,0.09036023914813995,2.397994041442871,3.498494152154308e-07,0.38978636264801025,-0.6963545680046082,-7.479390660591889e-06,0.0988214910030365,-0.9454379081726074,-9.330191460321657e-06,0.0,2.51162052154541,-1.1594295501708984,-0.3835020959377289,14.5,0.0,2.616405487060547,-1.1633634567260742,-0.3835020959377289,13.5,0.0,2.247333526611328,-0.08797645568847656,-0.5752531439065933,27.5,0.0,2.376079559326172,-0.15735626220703125,-0.5752531439065933,18.75,0.0,2.161860466003418,-0.018596649169921875,-0.3835020959377289,22.75,0.0,2.1926164627075195,-0.04506111145019531,-0.5752531439065933,30.75,0.0,2.660036087036133,-1.2187957763671875,0.0,19.5,,,,,,,,,,,,,,,,,,,,,,,,,,,,,,,,,,,,,,,,,,,,,
0.0,0.08784247934818268,2.327908992767334,-4.1995426158791815e-07,0.34102413058280945,-0.7514416575431824,-8.423017789027654e-06,0.057039160281419754,-0.8764053583145142,-9.345974831376225e-06,0.0,2.502322196960449,-1.1533498764038086,-0.19175104796886444,15.0,0.0,2.313852310180664,-1.0367631912231445,-0.19175104796886444,14.0,0.0,2.64894962310791,-1.0242462158203125,-0.19175104796886444,13.25,0.0,2.219080924987793,-0.49996376037597656,-0.3835020959377289,19.25,0.0,2.070307731628418,0.10156631469726562,-0.5752531439065933,20.25,0.0,2.108931541442871,0.1366138458251953,-0.5752531439065933,22.0,0.0,2.735137939453125,-1.2545585632324219,0.0,15.5,0.0,2.926468849182129,-1.2624263763427734,0.0,12.25,,,,,,,,,,,,,,,,,,,,,,,,,,,,,,,,,,,,,,,,
0.0,-0.016926899552345276,2.2867133617401123,-1.0034148090198869e-06,0.1439134031534195,-0.7330184578895569,-9.08920537767699e-06,-0.09478995203971863,-0.7295956611633301,-9.209305972035509e-06,0.0,2.558469772338867,-1.2184381484985352,-0.3835020959377289,12.25,0.0,2.573847770690918,-0.9634494781494141,-0.3835020959377289,13.0,0.0,2.382516860961914,-0.6251335144042969,-0.3835020959377289,13.75,0.0,2.2208690643310547,-0.3973245620727539,-0.5752531439065933,22.5,0.0,2.181887626647949,-0.2760887145996094,-0.5752531439065933,25.5,0.0,2.065300941467285,0.2110004425048828,-0.7670041918754578,18.0,0.0,1.944422721862793,0.41091442108154297,-0.7670041918754578,13.0,0.0,2.744436264038086,-1.2313127517700195,0.0,15.25,0.0,2.9375553131103516,-1.2491941452026367,0.0,12.25,,,,,,,,,,,,,,,,,,,,,,,,,,,,,,,,,,,
0.0,-0.07086511701345444,2.2049121856689453,-1.5448462136191665e-06,0.028242647647857666,-0.8000931739807129,-9.57582233240828e-06,-0.17931783199310303,-0.7151682376861572,-8.969089321908541e-06,0.0,2.0134449005126953,-0.1995563507080078,-0.5752531439065933,14.5,0.0,2.0602941513061523,-0.23818016052246094,-0.5752531439065933,22.75,0.0,2.0824670791625977,-0.2560615539550781,-0.9587552398443222,25.0,0.0,2.179384231567383,-0.28896331787109375,-0.9587552398443222,16.5,0.0,2.814173698425293,-1.1243820190429688,0.0,13.75,0.0,2.962946891784668,-1.2520551681518555,0.0,12.5,,,,,,,,,,,,,,,,,,,,,,,,,,,,,,,,,,,,,,,,,,,,,,,,,,
0.0,-0.08367457985877991,2.1174535751342773,-2.0201518964313436e-06,-0.015798551961779594,-0.8413094878196716,-9.935289199347608e-06,-0.20172588527202606,-0.6515781283378601,-8.683167834533378e-06,0.0,1.9655227661132812,-1.295328140258789,-0.7670041918754578,13.5,0.0,2.155423164367676,-1.4008283615112305,-0.7670041918754578,12.75,0.0,1.9916296005249023,-0.20813941955566406,-0.3835020959377289,25.5,0.0,1.9394159317016602,-0.13625621795654297,-0.3835020959377289,28.0,0.0,1.8650293350219727,0.02467632293701172,-0.9587552398443222,18.25,0.0,1.919388771057129,-0.055789947509765625,-0.9587552398443222,27.25,0.0,2.800583839416504,-1.175522804260254,0.0,14.25,0.0,2.95257568359375,-1.256704330444336,0.0,12.5,0.0,2.4433135986328125,0.051856040954589844,0.0,17.25,,,,,,,,,,,,,,,,,,,,,,,,,,,,,,,,,,,
0.0,-0.2066337764263153,2.058739423751831,-2.4313851554325083e-06,-0.23161092400550842,-0.8278385400772095,-1.015742054732982e-05,-0.3614444136619568,-0.5416003465652466,-8.33156991575379e-06,0.0,2.239823341369629,-1.2767314910888672,-1.342257335782051,18.25,0.0,2.305269241333008,-1.3157129287719727,-1.1505062878131866,16.25,0.0,2.1103620529174805,-1.124739646911621,-1.342257335782051,16.5,0.0,1.960158348083496,-0.3197193145751953,-0.19175104796886444,22.25,0.0,2.019524574279785,-0.3540515899658203,-0.19175104796886444,21.5,0.0,1.9311904907226562,-0.23245811462402344,-0.7670041918754578,18.5,0.0,2.8220415115356445,-1.123666763305664,0.0,13.75,0.0,2.980470657348633,-1.2094974517822266,0.0,12.5,,,,,,,,,,,,,,,,,,,,,,,,,,,,,,,,,,,,,,,,
0.0,-0.2862206697463989,1.9824806451797485,-2.3862057787482627e-06,-0.35601240396499634,-0.8742948174476624,-9.740290806803387e-06,-0.432856023311615,-0.5402699112892151,-7.612872650497593e-06,0.0,2.3660659790039062,-1.090407371520996,-0.3835020959377289,16.0,0.0,2.4393796920776367,-1.020669937133789,-1.72575943171978,14.25,0.0,1.9555091857910156,-0.3522634506225586,-0.7670041918754578,18.0,0.0,1.8492937088012695,-0.18167495727539062,-0.7670041918754578,26.5,0.0,1.868605613708496,-0.2696514129638672,-0.7670041918754578,26.25,0.0,1.7924308776855469,-0.025391578674316406,-0.7670041918754578,22.0,0.0,2.4400949478149414,-0.5779266357421875,0.0,15.0,0.0,1.9304752349853516,-0.02574920654296875,0.0,16.75,,,,,,,,,,,,,,,,,,,,,,,,,,,,,,,,,,,,,,,,
0.0,-0.3827788829803467,1.9099873304367065,-2.3397365112032276e-06,-0.5150232911109924,-0.858410120010376,-9.334092283097561e-06,-0.5413994193077087,-0.4269370138645172,-6.9576854002662e-06,0.0,2.0220279693603516,-1.279592514038086,-0.3835020959377289,15.25,0.0,2.1375417709350586,-1.2520551681518555,-0.3835020959377289,14.0,0.0,1.897573471069336,-0.7928609848022461,-0.5752531439065933,15.75,0.0,1.80816650390625,-0.33795833587646484,-0.5752531439065933,22.25,0.0,1.7570257186889648,-0.24890899658203125,-0.5752531439065933,27.25,0.0,1.7119646072387695,-0.08189678192138672,-0.5752531439065933,26.25,0.0,1.6368627548217773,0.07331371307373047,-0.7670041918754578,19.75,0.0,2.470850944519043,-1.1723041534423828,0.0,15.75,0.0,2.5523900985717773,-1.2989044189453125,0.0,15.25,,,,,,,,,,,,,,,,,,,,,,,,,,,,,,,,,,,
0.0,-0.4714631736278534,1.8239973783493042,-2.2883091332914773e-06,-0.6261571049690247,-0.9096551537513733,-8.803732271189801e-06,-0.5878301858901978,-0.44470250606536865,-6.225613560673082e-06,0.0,1.771688461303711,-1.384735107421875,-1.72575943171978,17.5,0.0,1.8939971923828125,-1.4394521713256836,-0.3835020959377289,19.0,0.0,1.9522905349731445,-1.4505386352539062,-0.3835020959377289,15.75,0.0,1.8156766891479492,-0.46813488006591797,-0.3835020959377289,18.25,0.0,1.6973018646240234,-0.15056133270263672,-0.9587552398443222,23.0,0.0,1.6014575958251953,-0.0032186508178710938,-0.5752531439065933,22.0,0.0,1.6225576400756836,-0.012874603271484375,-0.7670041918754578,26.0,0.0,2.486586570739746,-1.1647939682006836,0.0,16.0,0.0,2.578854560852051,-1.279592514038086,0.0,16.5,0.0,2.6750564575195312,-1.282811164855957,0.0,12.25,,,,,,,,,,,,,,,,,,,,,,,,,,,,,,
0.0,-0.5435160398483276,1.7369524240493774,-2.270562163175782e-06,-0.7098873257637024,-0.9257583022117615,-8.299440196424257e-06,-0.6196735501289368,-0.3955216705799103,-5.552239599637687e-06,0.0,1.775979995727539,-1.3571977615356445,-0.5752531439065933,14.75,0.0,1.889348030090332,-1.3697147369384766,-0.3835020959377289,16.25,0.0,1.7119646072387695,-0.7510185241699219,-0.3835020959377289,13.5,0.0,1.6186237335205078,-0.3333091735839844,-0.7670041918754578,25.5,0.0,1.645803451538086,-0.3744363784790039,-0.3835020959377289,23.0,0.0,1.558542251586914,-0.1398324966430664,-0.7670041918754578,19.0,0.0,1.431584358215332,0.17058849334716797,-0.7670041918754578,12.75,0.0,1.770615577697754,1.422286033630371,-0.5752531439065933,12.0,0.0,2.4733543395996094,-1.152634620666504,0.0,15.25,0.0,2.5627613067626953,-1.337885856628418,0.0,16.25,0.0,2.640366554260254,-1.3740062713623047,0.0,12.75,,,,,,,,,,,,,,,,,,,,,,,,,
0.0,-0.5778319835662842,1.6456185579299927,-2.3079792299540713e-06,-0.6932647228240967,-0.9586362242698669,-7.801086212566588e-06,-0.5461412668228149,-0.393341600894928,-4.896949121757643e-06,0.0,2.045273780822754,-1.1576414108276367,-0.5752531439065933,13.25,0.0,1.6633272171020508,-0.7284879684448242,-0.5752531439065933,13.0,0.0,1.5878677368164062,-0.4856586456298828,-0.7670041918754578,26.0,0.0,1.553177833557129,-0.3694295883178711,-0.7670041918754578,26.0,0.0,1.5617609024047852,-0.4366636276245117,-0.7670041918754578,30.25,0.0,1.495957374572754,-0.14519691467285156,-0.7670041918754578,15.75,0.0,2.453327178955078,-1.1909008026123047,0.0,14.75,0.0,2.5566816329956055,-1.3682842254638672,0.0,16.0,0.0,2.6575326919555664,-1.3561248779296875,0.0,12.75,0.0,2.0399093627929688,-0.3497600555419922,0.0,14.75,0.0,1.888275146484375,-0.29397010803222656,0.0,18.25,,,,,,,,,,,,,,,,,,,,,,,,,
0.0,-0.5943373441696167,1.5621743202209473,-2.2584131329494994e-06,-0.6278709173202515,-0.9856668710708618,-7.147672477003653e-06,-0.4268127679824829,-0.40075644850730896,-4.168394752923632e-06,0.0,1.878976821899414,-1.2041330337524414,-0.7670041918754578,14.25,0.0,1.9633769989013672,-1.2112855911254883,-0.7670041918754578,13.25,0.0,1.4598369598388672,-0.4674196243286133,-0.7670041918754578,19.5,0.0,1.6061067581176758,-0.4602670669555664,-0.9587552398443222,12.25,0.0,1.4122724533081055,-0.2810955047607422,-0.7670041918754578,22.0,0.0,1.3643503189086914,-0.10514259338378906,-0.9587552398443222,19.5,0.0,2.4497509002685547,-1.1343955993652344,0.0,14.0,0.0,2.6110410690307617,-1.2331008911132812,0.0,14.0,0.0,1.8682479858398438,-0.3490447998046875,0.0,18.25,0.0,2.0259618759155273,-0.31185150146484375,0.0,12.75,,,,,,,,,,,,,,,,,,,,,,,,,,,,,,
0.0,-0.5814498066902161,1.4944545030593872,-2.165845444324077e-06,-0.5301473140716553,-0.9531345367431641,-6.4575488067930564e-06,-0.30642765760421753,-0.32077330350875854,-3.468288468866376e-06,0.0,1.6683340072631836,-1.4204978942871094,-0.5752531439065933,20.0,0.0,1.759171485900879,-1.382589340209961,-0.5752531439065933,15.5,0.0,1.4204978942871094,-0.5332231521606445,-0.7670041918754578,19.25,0.0,1.2456178665161133,0.05042552947998047,-0.7670041918754578,21.0,0.0,1.2516975402832031,0.07796287536621094,-0.7670041918754578,25.25,0.0,1.291036605834961,0.06937980651855469,-0.7670041918754578,22.25,0.0,2.620697021484375,-1.2377500534057617,0.0,14.0,0.0,2.4737119674682617,-1.1061429977416992,0.0,13.5,,,,,,,,,,,,,,,,,,,,,,,,,,,,,,,,,,,,,,,,
0.0,-0.5735281705856323,1.4120696783065796,-2.0243783183104824e-06,-0.4600105881690979,-0.9268739819526672,-5.710062850994291e-06,-0.22802948951721191,-0.2431018054485321,-2.7721018796000862e-06,0.0,1.6890764236450195,-1.3425350189208984,-0.19175104796886444,12.75,0.0,1.3028383255004883,-0.4259347915649414,-0.7670041918754578,28.25,0.0,1.3693571090698242,-0.4978179931640625,-0.9587552398443222,21.75,0.0,0.903010368347168,-0.1512765884399414,-0.5752531439065933,18.25,0.0,1.2456178665161133,-0.2346038818359375,-0.5752531439065933,29.25,0.0,1.1962652206420898,-0.18489360809326172,-0.5752531439065933,28.25,,,,,,,,,,,,,,,,,,,,,,,,,,,,,,,,,,,,,,,,,,,,,,,,,,
0.0,-0.5749833583831787,1.3430836200714111,-1.723066134218243e-06,-0.4142993688583374,-0.8819596767425537,-4.754647761728847e-06,-0.18119105696678162,-0.154413104057312,-1.9813373910437804e-06,0.0,1.4240741729736328,-1.2531280517578125,-0.3835020959377289,13.0,0.0,1.567840576171875,-1.3693571090698242,-0.3835020959377289,20.25,0.0,1.100778579711914,-0.7617473602294922,-0.7670041918754578,19.0,0.0,1.1894702911376953,-0.6802082061767578,-0.7670041918754578,23.25,0.0,1.283884048461914,-0.7424354553222656,-0.3835020959377289,15.25,0.0,0.9137392044067383,0.05614757537841797,-0.5752531439065933,17.5,0.0,1.1093616485595703,0.09047985076904297,-0.5752531439065933,21.5,0.0,1.1676549911499023,0.1348257064819336,-0.7670041918754578,19.75,,,,,,,,,,,,,,,,,,,,,,,,,,,,,,,,,,,,,,,,
0.0,-0.5232685804367065,1.2896755933761597,-1.7998486327996943e-06,-0.2748230993747711,-0.7953743934631348,-4.385267857287545e-06,-0.05220907926559448,-0.03380449861288071,-1.6152639545907732e-06,0.0,1.1740922927856445,-0.5146265029907227,-0.5752531439065933,20.75,0.0,1.1057853698730469,-0.04470348358154297,-0.5752531439065933,27.5,0.0,0.91552734375,0.0050067901611328125,-0.5752531439065933,29.75,0.0,1.0668039321899414,-0.006079673767089844,-0.5752531439065933,32.25,0.0,1.5714168548583984,-1.2627840042114258,0.0,19.0,,,,,,,,,,,,,,,,,,,,,,,,,,,,,,,,,,,,,,,,,,,,,,,,,,,,,,,
0.0,-0.4404827356338501,1.2441363334655762,-1.7840062582763494e-06,-0.07944723963737488,-0.7125682234764099,-3.881959855789319e-06,0.12983478605747223,0.049520812928676605,-1.1748970791813917e-06,0.0,1.147627830505371,-0.5521774291992188,-0.5752531439065933,16.5,0.0,1.0710954666137695,-0.061511993408203125,-0.7670041918754578,24.25,0.0,0.9151697158813477,0.026464462280273438,-0.7670041918754578,32.25,0.0,1.0160207748413086,0.010371208190917969,-0.7670041918754578,32.25,,,,,,,,,,,,,,,,,,,,,,,,,,,,,,,,,,,,,,,,,,,,,,,,,,,,,,,,,,,,
0.0,-0.4040359556674957,1.1701350212097168,-1.6817302821436897e-06,0.017570413649082184,-0.7066739797592163,-3.273753691246384e-06,0.21268050372600555,0.040259361267089844,-6.91783384354494e-07,0.0,1.0660886764526367,-0.8150339126586914,-0.7670041918754578,15.75,0.0,1.0256767272949219,-0.5242824554443359,-0.7670041918754578,21.0,0.0,0.9784698486328125,-0.04220008850097656,-0.7670041918754578,27.75,0.0,0.91552734375,0.017523765563964844,-0.7670041918754578,29.75,0.0,1.5631914138793945,-1.2956857681274414,0.0,20.0,,,,,,,,,,,,,,,,,,,,,,,,,,,,,,,,,,,,,,,,,,,,,,,,,,,,,,,
0.0,-0.35104724764823914,1.1060961484909058,-1.6296669400617247e-06,0.1303836554288864,-0.6805602312088013,-2.791345650621224e-06,0.29746174812316895,0.05869563668966293,-3.281097065155336e-07,0.0,0.9995698928833008,-0.3751516342163086,-0.5752531439065933,15.0,0.0,0.9123086929321289,-0.1380443572998047,-0.7670041918754578,25.75,0.0,0.9137392044067383,-0.05793571472167969,-0.7670041918754578,31.75,,,,,,,,,,,,,,,,,,,,,,,,,,,,,,,,,,,,,,,,,,,,,,,,,,,,,,,,,,,,,,,,,
0.0,-0.3617178201675415,1.0218188762664795,-1.5092667808858096e-06,0.11079664528369904,-0.6893660426139832,-2.2597264432988595e-06,0.24870266020298004,0.060860708355903625,3.42361659022572e-08,0.0,0.8032321929931641,-0.5693435668945312,-0.5752531439065933,15.0,0.0,0.8429288864135742,-0.36263465881347656,-0.5752531439065933,14.75,0.0,0.880122184753418,-0.25212764739990234,-0.5752531439065933,24.5,,,,,,,,,,,,,,,,,,,,,,,,,,,,,,,,,,,,,,,,,,,,,,,,,,,,,,,,,,,,,,,,,
0.0,-0.37408098578453064,0.9592348337173462,-1.3632958371090353e-06,0.07879679650068283,-0.6493785381317139,-1.7495368638265063e-06,0.18290925025939941,0.12448518723249435,3.5072798709734343e-07,0.0,0.8772611618041992,-0.6659030914306641,-0.3835020959377289,17.25,0.0,0.8347034454345703,-0.4048347473144531,-0.3835020959377289,25.5,0.0,0.8826255798339844,-0.2428293228149414,-0.3835020959377289,32.25,0.0,1.6279220581054688,-1.3064146041870117,0.0,15.0,,,,,,,,,,,,,,,,,,,,,,,,,,,,,,,,,,,,,,,,,,,,,,,,,,,,,,,,,,,,
0.0,-0.3570670485496521,0.9208449125289917,-1.2955219972354826e-06,0.09740892797708511,-0.5698428153991699,-1.3941498764324933e-06,0.16672886908054352,0.21587860584259033,5.470448058986221e-07,0.0,0.7982254028320312,-0.5307197570800781,-0.19175104796886444,13.25,0.0,0.914454460144043,-0.04649162292480469,-0.19175104796886444,24.25,0.0,1.5166997909545898,-1.3428926467895508,0.0,17.0,0.0,1.6204118728637695,-1.3153553009033203,0.0,14.5,,,,,,,,,,,,,,,,,,,,,,,,,,,,,,,,,,,,,,,,,,,,,,,,,,,,,,,,,,,,
0.0,-0.3464925289154053,0.8649399876594543,-1.43220177051262e-06,0.11408181488513947,-0.5482549667358398,-1.3394453617365798e-06,0.0,0.0,0.0,0.0,1.6050338745117188,-1.3293027877807617,0.0,12.25,,,,,,,,,,,,,,,,,,,,,,,,,,,,,,,,,,,,,,,,,,,,,,,,,,,,,,,,,,,,,,,,,,,,,,,,,,,
0.0,-0.3600480854511261,0.8625863194465637,-1.2535615496744867e-06,0.046067096292972565,-0.41751909255981445,-9.527794873065432e-07,-0.08949076384305954,0.1765829622745514,2.215706444985699e-07,0.0,0.7574558258056641,-0.45812129974365234,0.19175104796886444,18.75,0.0,0.8819103240966797,-0.2453327178955078,0.19175104796886444,29.0,,,,,,,,,,,,,,,,,,,,,,,,,,,,,,,,,,,,,,,,,,,,,,,,,,,,,,,,,,,,,,,,,,,,,,
0.0,-0.39523378014564514,0.8891410231590271,-9.927215387506294e-07,-0.0599089190363884,-0.23452970385551453,-4.990961315343156e-07,-0.21025368571281433,0.3956056535243988,4.671399835842749e-07,0.0,0.8615255355834961,-0.685572624206543,0.3835020959377289,15.0,0.0,0.8300542831420898,-0.35691261291503906,0.19175104796886444,21.75,0.0,0.8826255798339844,-0.2435445785522461,0.3835020959377289,29.75,,,,,,,,,,,,,,,,,,,,,,,,,,,,,,,,,,,,,,,,,,,,,,,,,,,,,,,,,,,,,,,,,
0.0,-0.4066411852836609,0.9333783388137817,-7.915683681858354e-07,-0.11570806801319122,-0.0437922477722168,-1.5004866327217314e-07,-0.2730781137943268,0.5854114890098572,6.417529334612482e-07,0.0,1.0020732879638672,-0.5804300308227539,0.3835020959377289,14.75,0.0,0.9427070617675781,-0.2689361572265625,0.3835020959377289,17.0,0.0,0.8994340896606445,-0.17058849334716797,0.5752531439065933,20.5,0.0,0.8919239044189453,-0.20706653594970703,0.0,26.75,0.0,0.9055137634277344,-0.23281574249267578,0.0,20.75,,,,,,,,,,,,,,,,,,,,,,,,,,,,,,,,,,,,,,,,,,,,,,,,,,,,,,,
0.0,-0.3878467381000519,1.0050872564315796,-6.161624241940444e-07,-0.123394675552845,0.1932503581047058,1.37858336302088e-07,-0.2956855893135071,0.811065137386322,7.695383033023973e-07,0.0,0.9473562240600586,-0.5840063095092773,0.7670041918754578,19.25,0.0,0.9094476699829102,-0.10442733764648438,0.7670041918754578,26.0,0.0,0.9151697158813477,-0.022172927856445312,0.7670041918754578,33.5,0.0,3.200054168701172,0.0890493392944336,0.5752531439065933,13.5,0.0,3.2258033752441406,-0.032901763916015625,0.5752531439065933,15.25,0.0,0.9176731109619141,-0.6576776504516602,0.0,17.5,0.0,0.8955001831054688,-0.24318695068359375,0.0,21.0,0.0,0.8994340896606445,-0.17130374908447266,0.0,27.0,,,,,,,,,,,,,,,,,,,,,,,,,,,,,,,,,,,,,,,,
0.0,-0.3877631425857544,1.0702589750289917,-4.346839546087722e-07,-0.14980676770210266,0.3934350907802582,4.121558276892756e-07,-0.31847256422042847,0.9719172716140747,8.856868589646183e-07,0.0,1.0367631912231445,-0.6880760192871094,0.5752531439065933,15.0,0.0,1.019597053527832,-0.4878044128417969,0.7670041918754578,24.5,0.0,0.9959936141967773,-0.2295970916748047,0.7670041918754578,28.75,0.0,0.9094476699829102,-0.10657310485839844,0.7670041918754578,29.75,0.0,0.9012222290039062,-0.1609325408935547,0.0,28.75,,,,,,,,,,,,,,,,,,,,,,,,,,,,,,,,,,,,,,,,,,,,,,,,,,,,,,,
0.0,-0.3211279809474945,1.1330257654190063,-2.9296421644176007e-07,-0.05777130275964737,0.5456423759460449,6.12331177762826e-07,-0.22392989695072174,1.0366544723510742,9.514963039691793e-07,0.0,1.1336803436279297,-0.6247758865356445,0.7670041918754578,17.5,0.0,1.07574462890625,-0.10979175567626953,0.5752531439065933,24.75,0.0,1.0006427764892578,0.01823902130126953,0.5752531439065933,33.5,0.0,0.9137392044067383,0.054717063903808594,0.5752531439065933,34.0,0.0,0.9062290191650391,-0.12946128845214844,0.0,28.25,,,,,,,,,,,,,,,,,,,,,,,,,,,,,,,,,,,,,,,,,,,,,,,,,,,,,,,
0.0,-0.29918691515922546,1.1714653968811035,-1.7860674006442423e-07,-0.03607168793678284,0.6180975437164307,7.620112683071056e-07,-0.1857348382472992,1.0023245811462402,9.838854566623922e-07,0.0,1.1723041534423828,-0.6676912307739258,0.3835020959377289,21.25,0.0,0.9119510650634766,-0.07975101470947266,0.5752531439065933,29.75,0.0,1.0464191436767578,-0.09548664093017578,0.5752531439065933,31.5,0.0,1.0979175567626953,-0.09012222290039062,0.5752531439065933,25.25,,,,,,,,,,,,,,,,,,,,,,,,,,,,,,,,,,,,,,,,,,,,,,,,,,,,,,,,,,,,
0.0,-0.2556650638580322,1.206371545791626,-8.733785250569781e-08,0.02328372746706009,0.6437275409698486,8.664504775879323e-07,-0.11163688451051712,0.8981602191925049,9.861521448328858e-07,0.0,1.2449026107788086,-0.2124309539794922,0.3835020959377289,15.5,0.0,1.1401176452636719,-0.0457763671875,0.3835020959377289,23.5,0.0,1.1612176895141602,-0.08296966552734375,0.3835020959377289,22.5,0.0,0.91552734375,-0.001430511474609375,0.3835020959377289,18.0,,,,,,,,,,,,,,,,,,,,,,,,,,,,,,,,,,,,,,,,,,,,,,,,,,,,,,,,,,,,
0.0,-0.23363222181797028,1.2330658435821533,-7.2575390142048946e-09,0.04452762007713318,0.6366761922836304,9.452791687181161e-07,-0.076210618019104,0.7693287134170532,9.72294856182998e-07,0.0,1.3267993927001953,-0.5296468734741211,0.19175104796886444,12.25,0.0,1.2352466583251953,-0.1544952392578125,0.5752531439065933,26.25,0.0,0.9119510650634766,-0.07975101470947266,0.3835020959377289,24.75,0.0,1.1676549911499023,-0.09191036224365234,0.3835020959377289,33.75,0.0,1.1773109436035156,-0.0940561294555664,0.3835020959377289,34.25,,,,,,,,,,,,,,,,,,,,,,,,,,,,,,,,,,,,,,,,,,,,,,,,,,,,,,,
0.0,-0.2588900625705719,1.3083465099334717,4.662315689074603e-08,-0.0032269731163978577,0.6489213705062866,9.92031118585146e-07,-0.09890102595090866,0.6457080841064453,9.422552125215589e-07,0.0,1.7838478088378906,-1.2052059173583984,0.3835020959377289,13.5,0.0,1.8038749694824219,-1.2166500091552734,0.3835020959377289,16.75,0.0,1.887202262878418,-1.1973381042480469,0.3835020959377289,12.0,0.0,1.2842416763305664,-0.6186962127685547,0.3835020959377289,15.5,0.0,1.4355182647705078,-0.4309415817260742,0.3835020959377289,14.25,0.0,0.91552734375,-0.0057220458984375,0.5752531439065933,19.0,0.0,1.176595687866211,0.004649162292480469,0.5752531439065933,27.5,0.0,1.2717247009277344,0.021457672119140625,0.5752531439065933,16.5,0.0,1.1748075485229492,0.058650970458984375,0.5752531439065933,26.5,0.0,1.5560388565063477,-1.2981891632080078,0.0,14.0,0.0,1.7033815383911133,-1.2624263763427734,0.0,12.5,0.0,1.262068748474121,-0.20813941955566406,0.0,16.75,0.0,1.1222362518310547,-0.09226799011230469,0.0,24.75,,,,,,,,,,,,,,,
0.0,-0.24203236401081085,1.373261570930481,1.1878081096483584e-07,0.015311640687286854,0.7106135487556458,1.0450021363794804e-06,-0.07449429482221603,0.6416656374931335,9.155063480648096e-07,0.0,1.7094612121582031,-1.4469623565673828,0.5752531439065933,15.0,0.0,1.3843774795532227,-0.2027750015258789,0.7670041918754578,22.0,0.0,0.9137392044067383,-0.055789947509765625,0.5752531439065933,16.75,0.0,1.2552738189697266,-0.07081031799316406,0.5752531439065933,31.75,0.0,1.2717247009277344,-0.07617473602294922,0.7670041918754578,36.5,0.0,1.2967586517333984,-0.09799003601074219,0.7670041918754578,34.0,0.0,1.5184879302978516,-1.3539791107177734,0.0,13.0,0.0,1.6955137252807617,-1.3103485107421875,0.0,12.25,0.0,1.2985467910766602,-0.125885009765625,0.0,23.5,0.0,1.1837482452392578,-0.08296966552734375,0.0,27.75,,,,,,,,,,,,,,,,,,,,,,,,,,,,,,
0.0,-0.24512411653995514,1.4511845111846924,1.7252486372854037e-07,0.0040722074918448925,0.739320695400238,1.0670910342014395e-06,-0.07210852205753326,0.570876955986023,8.702544391780975e-07,0.0,1.7709732055664062,-1.3543367385864258,0.5752531439065933,15.25,0.0,1.8907785415649414,-1.3175010681152344,0.19175104796886444,14.75,0.0,1.4498233795166016,-0.5289316177368164,0.3835020959377289,23.75,0.0,1.5524625778198242,-0.5435943603515625,0.5752531439065933,16.0,0.0,1.2906789779663086,0.1577138900756836,0.7670041918754578,19.75,0.0,1.3260841369628906,0.14841556549072266,0.7670041918754578,27.5,0.0,1.3443231582641602,0.1437664031982422,0.7670041918754578,27.75,0.0,1.4777183532714844,-1.0743141174316406,0.0,12.75,0.0,1.199483871459961,-0.051856040954589844,0.0,28.75,,,,,,,,,,,,,,,,,,,,,,,,,,,,,,,,,,,
0.0,-0.2093707174062729,1.520409345626831,2.3687090333623928e-07,0.056290969252586365,0.7787737846374512,1.0916370456470759e-06,-0.0194578655064106,0.5412442684173584,8.289483730550273e-07,0.0,1.5664100646972656,-0.3243684768676758,0.5752531439065933,17.75,0.0,1.48773193359375,-0.1684427261352539,0.5752531439065933,28.75,0.0,1.4115571975708008,0.04184246063232422,0.7670041918754578,28.0,0.0,1.4412403106689453,-0.04112720489501953,0.7670041918754578,31.75,0.0,1.3257265090942383,0.1341104507446289,0.7670041918754578,17.25,0.0,1.6078948974609375,-0.5460977554321289,0.0,13.75,,,,,,,,,,,,,,,,,,,,,,,,,,,,,,,,,,,,,,,,,,,,,,,,,,
0.0,-0.28551870584487915,1.5674902200698853,2.6813467002284597e-07,-0.08334580808877945,0.6805833578109741,1.0641343806128134e-06,-0.12628915905952454,0.29698824882507324,7.529100116698828e-07,0.0,1.8353462219238281,-1.337885856628418,0.3835020959377289,17.25,0.0,1.934051513671875,-1.2878179550170898,0.3835020959377289,18.75,0.0,1.473069190979004,-0.49495697021484375,0.19175104796886444,23.0,0.0,1.4573335647583008,-0.3629922866821289,0.19175104796886444,22.5,0.0,1.432657241821289,-0.3229379653930664,0.19175104796886444,15.75,0.0,1.6311407089233398,-0.3533363342285156,0.19175104796886444,17.75,0.0,1.3750791549682617,0.3476142883300781,0.7670041918754578,15.25,0.0,1.5513896942138672,-1.3132095336914062,0.0,14.5,0.0,1.7588138580322266,-1.3332366943359375,0.0,16.0,0.0,1.9040107727050781,-1.3049840927124023,0.0,16.25,0.0,1.613616943359375,-0.5164146423339844,0.0,15.75,0.0,0.9148120880126953,-0.0400543212890625,0.0,18.5,0.0,1.1740922927856445,-0.08189678192138672,0.0,26.75,,,,,,,,,,,,,,,
0.0,-0.33176279067993164,1.6299833059310913,2.877051485938864e-07,-0.14571815729141235,0.6108517050743103,1.019779801936238e-06,-0.15114709734916687,0.1167081892490387,6.719982934555446e-07,0.0,1.9437074661254883,-1.204848289489746,0.3835020959377289,18.75,0.0,1.9937753677368164,-1.2427568435668945,0.3835020959377289,21.25,0.0,2.0563602447509766,-1.2331008911132812,0.3835020959377289,16.0,0.0,1.8160343170166016,-0.5468130111694336,0.7670041918754578,14.25,0.0,1.6311407089233398,-0.3826618194580078,0.19175104796886444,24.0,0.0,1.4873743057250977,-0.05078315734863281,0.3835020959377289,17.5,0.0,1.5377998352050781,-0.07617473602294922,0.3835020959377289,26.25,0.0,1.5707015991210938,-0.1233816146850586,0.19175104796886444,27.5,0.0,1.8099546432495117,-1.2856721878051758,0.0,17.0,0.0,1.932978630065918,-1.2753009796142578,0.0,17.25,0.0,1.6093254089355469,-0.4824399948120117,0.0,20.25,0.0,0.9080171585083008,-0.1169443130493164,0.0,13.0,0.0,1.2062788009643555,-0.11014938354492188,0.0,25.75,,,,,,,,,,,,,,,
0.0,-0.33132466673851013,1.7040342092514038,3.081335364640836e-07,-0.1280430257320404,0.6080999970436096,9.778209459909704e-07,-0.11722539365291595,0.07252249121665955,6.007002752994595e-07,0.0,2.042412757873535,-1.2116432189941406,0.3835020959377289,18.25,0.0,2.1250247955322266,-1.1730194091796875,0.3835020959377289,14.75,0.0,1.9644498825073242,-0.8304119110107422,0.7670041918754578,14.75,0.0,1.749873161315918,-0.1748800277709961,0.7670041918754578,27.75,0.0,1.842498779296875,-0.22029876708984375,0.7670041918754578,22.75,0.0,1.5717744827270508,0.04506111145019531,0.3835020959377289,25.0,0.0,1.6411542892456055,-0.045418739318847656,0.3835020959377289,27.75,0.0,1.5031099319458008,0.08797645568847656,0.3835020959377289,14.5,0.0,1.5599727630615234,-1.2409687042236328,0.0,13.75,0.0,1.8224716186523438,-1.2792348861694336,0.0,17.0,0.0,1.946568489074707,-1.2581348419189453,0.0,18.0,0.0,1.633286476135254,-0.28252601623535156,0.0,20.25,0.0,1.2116432189941406,-0.08296966552734375,0.0,25.75,0.0,1.5238523483276367,-0.03254413604736328,0.0,26.75,,,,,,,,,,
0.0,-0.3297487795352936,1.7700096368789673,3.3285238032476627e-07,-0.10937047749757767,0.5899229645729065,9.392160222887469e-07,-0.08525151014328003,0.014872204512357712,5.360672048482229e-07,0.0,2.0627975463867188,-1.2534856796264648,0.19175104796886444,18.0,0.0,2.1260976791381836,-1.2449026107788086,0.19175104796886444,16.75,0.0,2.0302534103393555,-0.5854368209838867,0.5752531439065933,12.75,0.0,1.8875598907470703,-0.38123130798339844,0.5752531439065933,19.0,0.0,1.5892982482910156,0.06759166717529297,0.5752531439065933,24.25,0.0,1.589655876159668,0.08368492126464844,0.5752531439065933,27.75,0.0,1.6772747039794922,0.1087188720703125,0.5752531439065933,21.0,0.0,2.6865005493164062,-1.2592077255249023,0.0,12.25,0.0,1.6558170318603516,-0.31757354736328125,0.0,19.5,0.0,1.839280128479004,-0.3883838653564453,0.0,12.5,0.0,1.5256404876708984,-0.04792213439941406,0.0,25.75,,,,,,,,,,,,,,,,,,,,,,,,,
0.0,-0.38213393092155457,1.863937497138977,3.4557939443402574e-07,-0.1819383203983307,0.6395547986030579,8.899562544684159e-07,-0.14037999510765076,0.07486796379089355,4.7140201786533e-07,0.0,2.1550655364990234,-1.2459754943847656,0.7670041918754578,21.5,0.0,2.189755439758301,-1.272439956665039,0.7670041918754578,23.75,0.0,2.248406410217285,-1.2731552124023438,1.1505062878131866,18.75,0.0,2.1039247512817383,-0.7603168487548828,0.7670041918754578,14.5,0.0,1.857161521911621,-0.2574920654296875,0.5752531439065933,15.75,0.0,1.7484426498413086,-0.06115436553955078,0.5752531439065933,20.25,0.0,1.6787052154541016,0.15306472778320312,0.5752531439065933,20.0,0.0,1.5968084335327148,0.3172159194946289,0.5752531439065933,13.0,0.0,1.6701221466064453,-0.2002716064453125,0.0,21.25,0.0,1.547098159790039,-0.00858306884765625,0.0,27.25,,,,,,,,,,,,,,,,,,,,,,,,,,,,,,
