tid,posx,posy,posz,velx,vely,velz,accx,accy,accz,pointx1,pointy1,pointz1,doppler1,snr1,pointx2,pointy2,pointz2,doppler2,snr2,pointx3,pointy3,pointz3,doppler3,snr3,pointx4,pointy4,pointz4,doppler4,snr4,pointx5,pointy5,pointz5,doppler5,snr5,pointx6,pointy6,pointz6,doppler6,snr6,pointx7,pointy7,pointz7,doppler7,snr7,pointx8,pointy8,pointz8,doppler8,snr8,pointx9,pointy9,pointz9,doppler9,snr9,pointx10,pointy10,pointz10,doppler10,snr10,pointx11,pointy11,pointz11,doppler11,snr11,pointx12,pointy12,pointz12,doppler12,snr12,pointx13,pointy13,pointz13,doppler13,snr13,pointx14,pointy14,pointz14,doppler14,snr14,pointx15,pointy15,pointz15,doppler15,snr15,pointx16,pointy16,pointz16,doppler16,snr16
0.0,0.019459273666143417,3.8002212047576904,0.06633607298135757,-0.002699619857594371,-0.5272115468978882,-0.009202921763062477,0.0,0.0,0.0,0.0,3.909587860107422,-0.9702444076538086,-0.3835020959377289,12.75,0.0,3.712892532348633,-0.5518198013305664,-0.3835020959377289,18.0,0.0,3.311634063720703,0.10192394256591797,-0.3835020959377289,13.25,0.0,3.4682750701904297,0.102996826171875,-0.3835020959377289,23.25,0.0,3.5916566848754883,-0.043272972106933594,-0.3835020959377289,21.25,0.0,3.392457962036133,0.12087821960449219,-0.3835020959377289,22.0,,,,,,,,,,,,,,,,,,,,,,,,,,,,,,,,,,,,,,,,,,,,,,,,,,
0.0,0.026168491691350937,3.754580020904541,0.06412812322378159,0.06746238470077515,-0.4542544186115265,-0.022113537415862083,0.007404110860079527,0.0431242510676384,-0.0006819502450525761,0.0,3.7790536880493164,-0.5621910095214844,-0.19175104796886444,14.0,0.0,3.6177635192871094,-0.1323223114013672,-0.7670041918754578,14.75,0.0,3.286600112915039,0.041484832763671875,-0.3835020959377289,12.5,0.0,3.349900245666504,0.14126300811767578,-0.3835020959377289,18.75,0.0,3.422856330871582,0.21564960479736328,-0.5752531439065933,18.0,0.0,3.998994827270508,-0.4838705062866211,0.0,13.25,0.0,3.5598278045654297,1.8854141235351562,0.0,12.25,,,,,,,,,,,,,,,,,,,,,,,,,,,,,,,,,,,,,,,,,,,,,
0.0,0.05210191011428833,3.714327573776245,0.05684574693441391,0.1659599244594574,-0.422025203704834,-0.04798148572444916,0.027516959235072136,0.07460610568523407,-0.0052993204444646835,0.0,3.6771297454833984,-0.9112358093261719,-0.19175104796886444,15.75,0.0,3.546595573425293,-0.5564689636230469,-0.19175104796886444,16.5,0.0,3.3960342407226562,0.038623809814453125,-0.3835020959377289,21.5,0.0,3.285527229309082,0.11157989501953125,-0.3835020959377289,17.5,0.0,3.335237503051758,0.1251697540283203,-0.3835020959377289,23.25,,,,,,,,,,,,,,,,,,,,,,,,,,,,,,,,,,,,,,,,,,,,,,,,,,,,,,,
0.0,0.08638619631528854,3.673351287841797,0.04531141370534897,0.2300219088792801,-0.41000500321388245,-0.07186506688594818,0.04631150886416435,0.08619658648967743,-0.01188771054148674,0.0,3.3463239669799805,-0.35834312438964844,-0.3835020959377289,18.75,0.0,3.3026933670043945,-0.11479854583740234,-0.3835020959377289,21.25,0.0,3.240823745727539,0.1437664031982422,-0.3835020959377289,18.0,,,,,,,,,,,,,,,,,,,,,,,,,,,,,,,,,,,,,,,,,,,,,,,,,,,,,,,,,,,,,,,,,
0.0,0.11721178889274597,3.641340494155884,0.02680147811770439,0.25555485486984253,-0.36793825030326843,-0.10340704768896103,0.05599535256624222,0.14749416708946228,-0.022857356816530228,0.0,3.322720527648926,-0.06866455078125,-0.3835020959377289,19.0,0.0,3.1338930130004883,0.2696514129638672,-0.5752531439065933,13.5,0.0,3.214716911315918,0.2371072769165039,-0.5752531439065933,23.5,0.0,3.241896629333496,0.1684427261352539,-0.5752531439065933,24.75,0.0,3.226161003112793,2.173304557800293,-0.3835020959377289,14.75,0.0,3.3921003341674805,2.1729469299316406,-0.3835020959377289,12.75,,,,,,,,,,,,,,,,,,,,,,,,,,,,,,,,,,,,,,,,,,,,,,,,,,
0.0,0.10017171502113342,3.6042098999023438,0.011556629091501236,0.16190874576568604,-0.374222993850708,-0.11656201630830765,0.0015244558453559875,0.06951721757650375,-0.02801864594221115,0.0,3.2079219818115234,0.20742416381835938,-0.5752531439065933,15.5,0.0,3.1539201736450195,0.3097057342529297,-0.5752531439065933,16.5,0.0,3.334522247314453,1.7620325088500977,-0.5752531439065933,12.5,0.0,3.4514665603637695,1.7048120498657227,-0.5752531439065933,14.75,0.0,3.73685359954834,-0.41306018829345703,0.0,14.5,,,,,,,,,,,,,,,,,,,,,,,,,,,,,,,,,,,,,,,,,,,,,,,,,,,,,,,
0.0,0.07154826819896698,3.5661847591400146,0.00031066525843925774,0.06905651092529297,-0.3859916925430298,-0.11807200312614441,-0.06019941717386246,0.009684037417173386,-0.026768868789076805,0.0,3.2951831817626953,-0.34296512603759766,-0.7670041918754578,13.25,0.0,3.09598445892334,0.05793571472167969,-0.7670041918754578,22.5,0.0,3.124237060546875,0.07867813110351562,-0.5752531439065933,27.25,0.0,3.153204917907715,0.06115436553955078,-0.5752531439065933,24.0,0.0,3.7300586700439453,-0.4763603210449219,0.0,13.5,,,,,,,,,,,,,,,,,,,,,,,,,,,,,,,,,,,,,,,,,,,,,,,,,,,,,,,
0.0,0.08797326683998108,3.5189833641052246,-0.0072891502641141415,0.08179935067892075,-0.4129598140716553,-0.11232967674732208,-0.0465315580368042,-0.037237200886011124,-0.020426752045750618,0.0,3.3141374588012695,-1.042485237121582,-0.7670041918754578,13.0,0.0,3.031611442565918,-0.20241737365722656,-0.7670041918754578,14.0,0.0,3.177523612976074,0.48422813415527344,-0.5752531439065933,17.0,0.0,3.094911575317383,0.582575798034668,-0.7670041918754578,18.75,,,,,,,,,,,,,,,,,,,,,,,,,,,,,,,,,,,,,,,,,,,,,,,,,,,,,,,,,,,,
0.0,0.008412078022956848,3.4905612468719482,-0.011621370911598206,-0.0903673842549324,-0.3895140588283539,-0.10139250755310059,-0.19442759454250336,-0.008941799402236938,-0.009848031215369701,0.0,3.269791603088379,-1.0042190551757812,-0.19175104796886444,16.25,0.0,3.1996965408325195,-0.1119375228881836,-0.3835020959377289,18.25,0.0,2.9268264770507812,0.08618831634521484,-0.3835020959377289,14.0,0.0,3.009796142578125,0.042557716369628906,-0.3835020959377289,20.5,0.0,3.084540367126465,-0.01430511474609375,-0.3835020959377289,21.5,,,,,,,,,,,,,,,,,,,,,,,,,,,,,,,,,,,,,,,,,,,,,,,,,,,,,,,
0.0,-0.007801353931427002,3.449263572692871,-0.014593051746487617,-0.12157846987247467,-0.408759206533432,-0.08839617669582367,-0.20551063120365143,-0.048178527504205704,0.00342459324747324,0.0,3.234386444091797,-0.9641647338867188,-0.19175104796886444,15.5,0.0,2.9218196868896484,0.052928924560546875,-0.3835020959377289,23.75,0.0,2.9740333557128906,0.05042552947998047,-0.3835020959377289,29.25,0.0,3.034830093383789,0.0171661376953125,-0.3835020959377289,28.25,0.0,3.13568115234375,-0.08797645568847656,-0.3835020959377289,22.5,,,,,,,,,,,,,,,,,,,,,,,,,,,,,,,,,,,,,,,,,,,,,,,,,,,,,,,
0.0,-0.0710233524441719,3.419567346572876,-0.015880296006798744,-0.24324847757816315,-0.3816923201084137,-0.07409022748470306,-0.310474693775177,-0.0018042288720607758,0.016305115073919296,0.0,3.1925439834594727,-1.0145902633666992,-0.19175104796886444,15.0,0.0,3.2508373260498047,-1.1222362518310547,-0.19175104796886444,15.25,0.0,2.8249025344848633,-0.021457672119140625,-0.7670041918754578,17.75,0.0,2.887129783630371,0.08118152618408203,-0.3835020959377289,17.75,0.0,3.032684326171875,0.18310546875,-0.3835020959377289,14.25,,,,,,,,,,,,,,,,,,,,,,,,,,,,,,,,,,,,,,,,,,,,,,,,,,,,,,,
0.0,-0.09984534233808517,3.3770506381988525,-0.017926925793290138,-0.28048357367515564,-0.3880736827850342,-0.06207731366157532,-0.3170725107192993,-0.006464124191552401,0.026478635147213936,0.0,3.2057762145996094,-1.1036396026611328,-0.19175104796886444,17.5,0.0,3.1567811965942383,-0.9233951568603516,-0.19175104796886444,19.75,0.0,3.102421760559082,-0.5689859390258789,-0.19175104796886444,18.5,0.0,2.9754638671875,-0.2288818359375,-0.3835020959377289,16.0,0.0,2.830982208251953,0.0654458999633789,-0.3835020959377289,13.5,0.0,2.99227237701416,0.1723766326904297,0.0,23.5,0.0,3.079533576965332,0.1881122589111328,0.0,24.5,,,,,,,,,,,,,,,,,,,,,,,,,,,,,,,,,,,,,,,,,,,,,
0.0,-0.030283235013484955,3.3223631381988525,-0.016250986605882645,-0.10536341369152069,-0.4283570647239685,-0.04358493536710739,-0.1021367758512497,-0.06020481139421463,0.04216901585459709,0.0,3.0698776245117188,-1.4412403106689453,-0.19175104796886444,14.0,0.0,3.151416778564453,-0.9019374847412109,-0.3835020959377289,16.75,0.0,3.087759017944336,-0.32722949981689453,-0.3835020959377289,14.5,0.0,2.722620964050293,0.1519918441772461,-0.3835020959377289,12.25,0.0,2.8034448623657227,0.2092123031616211,-0.3835020959377289,18.25,0.0,2.8749704360961914,0.20492076873779297,-0.3835020959377289,18.25,,,,,,,,,,,,,,,,,,,,,,,,,,,,,,,,,,,,,,,,,,,,,,,,,,
0.0,0.02117568999528885,3.270627975463867,-0.016408534720540047,0.012801133096218109,-0.4552980959415436,-0.03129409998655319,0.026873469352722168,-0.08837893605232239,0.04989684373140335,0.0,2.822399139404297,0.003933906555175781,-0.3835020959377289,16.5,0.0,2.688288688659668,0.09870529174804688,-0.3835020959377289,18.0,0.0,2.726912498474121,0.1462697982788086,-0.3835020959377289,20.0,,,,,,,,,,,,,,,,,,,,,,,,,,,,,,,,,,,,,,,,,,,,,,,,,,,,,,,,,,,,,,,,,
0.0,0.013666764833033085,3.2025845050811768,-0.012011758983135223,-0.002979063428938389,-0.5230474472045898,-0.0116491187363863,0.008663564920425415,-0.16891631484031677,0.06346653401851654,0.0,3.1478404998779297,-1.2466907501220703,-0.3835020959377289,12.5,0.0,3.0863285064697266,-0.9899139404296875,-0.3835020959377289,14.25,0.0,2.9926300048828125,-0.3908872604370117,-0.3835020959377289,17.75,0.0,2.8449296951293945,-0.1537799835205078,-0.3835020959377289,21.5,0.0,2.68399715423584,0.1895427703857422,-0.19175104796886444,22.25,0.0,2.728700637817383,0.14662742614746094,-0.19175104796886444,24.75,,,,,,,,,,,,,,,,,,,,,,,,,,,,,,,,,,,,,,,,,,,,,,,,,,
0.0,0.10490866750478745,3.1387603282928467,-0.009133306331932545,0.177501380443573,-0.5727090239524841,0.0019426923245191574,0.17642538249492645,-0.21678274869918823,0.06984823942184448,0.0,3.005862236022949,-1.2177228927612305,-0.5752531439065933,21.5,0.0,3.0927658081054688,-1.1751651763916016,-0.7670041918754578,25.5,0.0,3.139615058898926,-1.1594295501708984,-0.7670041918754578,21.0,0.0,2.846360206604004,0.07510185241699219,-0.19175104796886444,17.25,0.0,2.717256546020508,0.21851062774658203,-0.19175104796886444,21.25,0.0,2.6553869247436523,0.32401084899902344,-0.19175104796886444,19.0,0.0,2.709031105041504,0.23603439331054688,0.0,18.0,,,,,,,,,,,,,,,,,,,,,,,,,,,,,,,,,,,,,,,,,,,,,
0.0,0.08104656636714935,3.0964739322662354,-0.005028008483350277,0.11588597297668457,-0.5414015650749207,0.01496802270412445,0.10641510784626007,-0.13901354372501373,0.0746409073472023,0.0,3.080606460571289,-1.0614395141601562,-1.1505062878131866,15.25,0.0,2.83205509185791,-0.18095970153808594,-0.5752531439065933,18.5,0.0,3.0580759048461914,-0.16307830810546875,-0.5752531439065933,16.75,0.0,2.691507339477539,-0.05221366882324219,-0.19175104796886444,23.75,0.0,2.5870800018310547,0.18274784088134766,-0.19175104796886444,13.75,0.0,2.6543140411376953,0.10156631469726562,-0.19175104796886444,23.25,0.0,3.18145751953125,-1.0825395584106445,0.0,15.5,0.0,2.7022361755371094,0.02682209014892578,0.0,20.25,,,,,,,,,,,,,,,,,,,,,,,,,,,,,,,,,,,,,,,,
0.0,0.06586986780166626,3.053007125854492,-0.0017224426846951246,0.07598380744457245,-0.5145514607429504,0.024813296273350716,0.06261534988880157,-0.07792066037654877,0.07646150141954422,0.0,3.0094385147094727,-1.0678768157958984,-0.19175104796886444,12.25,0.0,2.9300451278686523,-0.8414983749389648,-0.5752531439065933,17.0,0.0,2.6775598526000977,-0.2009868621826172,-0.3835020959377289,20.0,0.0,2.7376413345336914,-0.1659393310546875,-0.3835020959377289,22.75,0.0,2.833127975463867,-0.051140785217285156,-0.5752531439065933,19.75,0.0,2.5963783264160156,-0.024318695068359375,0.0,14.0,0.0,2.672910690307617,-0.06723403930664062,0.0,23.5,0.0,2.7451515197753906,-0.006794929504394531,0.0,25.0,,,,,,,,,,,,,,,,,,,,,,,,,,,,,,,,,,,,,,,,
0.0,0.07364535331726074,2.9939064979553223,0.000785220880061388,0.08213895559310913,-0.5294855237007141,0.03191555663943291,0.06264172494411469,-0.08146491646766663,0.07607351988554001,0.0,2.8002262115478516,-1.3943910598754883,-0.19175104796886444,16.75,0.0,2.5720596313476562,0.18453598022460938,-0.3835020959377289,20.25,0.0,2.616763114929199,0.1609325408935547,-0.3835020959377289,27.25,0.0,2.640366554260254,0.14734268188476562,-0.3835020959377289,26.0,0.0,2.7462244033813477,0.1766681671142578,-0.3835020959377289,17.25,0.0,2.6546716690063477,0.06866455078125,0.0,26.0,0.0,2.5870800018310547,0.125885009765625,0.0,17.5,0.0,2.7151107788085938,0.11229515075683594,0.0,26.5,,,,,,,,,,,,,,,,,,,,,,,,,,,,,,,,,,,,,,,,
0.0,-0.09719198942184448,2.9820168018341064,0.0034219983499497175,-0.2373773753643036,-0.44660207629203796,0.03780144453048706,-0.21315015852451324,0.03195731341838837,0.0747671127319336,0.0,2.7916431427001953,-1.1873245239257812,-0.3835020959377289,15.5,0.0,2.7219057083129883,-0.7538795471191406,-0.3835020959377289,18.25,0.0,2.6407241821289062,-0.3336668014526367,-0.3835020959377289,24.0,0.0,2.5556087493896484,-0.16629695892333984,-0.3835020959377289,19.25,0.0,2.598881721496582,-0.23996829986572266,-0.3835020959377289,25.5,0.0,2.5777816772460938,0.05364418029785156,0.0,20.0,0.0,2.631068229675293,0.036835670471191406,0.0,27.0,0.0,2.6993751525878906,0.07832050323486328,0.0,26.5,,,,,,,,,,,,,,,,,,,,,,,,,,,,,,,,,,,,,,,,
0.0,-0.11791402101516724,2.9451987743377686,0.004767292179167271,-0.25225767493247986,-0.42675262689590454,0.040701724588871,-0.2083078771829605,0.05323018878698349,0.07154861837625504,0.0,2.552032470703125,-0.17523765563964844,-0.5752531439065933,25.5,0.0,2.597808837890625,-0.20635128021240234,-0.5752531439065933,21.5,0.0,2.524137496948242,-0.07867813110351562,-0.5752531439065933,21.5,0.0,2.9633045196533203,-1.074671745300293,0.0,20.75,0.0,2.567768096923828,0.06508827209472656,0.0,21.0,0.0,2.6178359985351562,0.03147125244140625,0.0,27.75,,,,,,,,,,,,,,,,,,,,,,,,,,,,,,,,,,,,,,,,,,,,,,,,,,
0.0,-0.08982546627521515,2.893435478210449,0.006974504794925451,-0.1765269786119461,-0.4250842332839966,0.04441202059388161,-0.12774324417114258,0.05897035449743271,0.06923127919435501,0.0,2.913236618041992,-0.8536577224731445,-0.3835020959377289,13.0,0.0,2.791285514831543,-0.17201900482177734,-0.19175104796886444,17.25,0.0,2.4150609970092773,0.0400543212890625,-0.5752531439065933,17.75,0.0,2.478361129760742,0.02467632293701172,-0.5752531439065933,27.25,0.0,2.519845962524414,0.0050067901611328125,-0.5752531439065933,28.25,0.0,2.622842788696289,-0.03790855407714844,-0.19175104796886444,23.5,0.0,2.932906150817871,-1.0793209075927734,0.0,18.0,0.0,2.5502443313598633,0.023603439331054688,0.0,30.0,,,,,,,,,,,,,,,,,,,,,,,,,,,,,,,,,,,,,,,,
0.0,-0.12191016972064972,2.8630878925323486,0.007619944866746664,-0.21461030840873718,-0.3857693076133728,0.044990140944719315,-0.14955346286296844,0.1067349761724472,0.06508204340934753,0.0,2.7333498001098633,-1.1851787567138672,-0.19175104796886444,14.5,0.0,2.85494327545166,-1.2044906616210938,-0.3835020959377289,14.75,0.0,2.947211265563965,-1.2041330337524414,-0.5752531439065933,12.25,0.0,2.577066421508789,-0.3908872604370117,-0.19175104796886444,12.25,0.0,2.4279356002807617,0.046133995056152344,-0.3835020959377289,22.0,0.0,2.387881278991699,0.19884109497070312,-0.3835020959377289,25.25,0.0,2.3556947708129883,0.2657175064086914,-0.5752531439065933,20.0,0.0,2.9375553131103516,-1.0485649108886719,0.0,18.25,,,,,,,,,,,,,,,,,,,,,,,,,,,,,,,,,,,,,,,,
0.0,-0.23880091309547424,2.8416781425476074,0.0074279336258769035,-0.39266398549079895,-0.39393073320388794,0.0435214601457119,-0.28311964869499207,0.051393602043390274,0.05988144874572754,0.0,2.6493072509765625,-1.4702081680297852,-0.19175104796886444,14.0,0.0,2.6761293411254883,-0.9859800338745117,-0.5752531439065933,14.0,0.0,2.6264190673828125,-0.4799365997314453,-0.19175104796886444,19.5,0.0,2.4862289428710938,-0.3304481506347656,-0.3835020959377289,21.25,0.0,2.361416816711426,0.02288818359375,-0.5752531439065933,24.25,0.0,2.3088455200195312,0.13017654418945312,-0.5752531439065933,22.5,0.0,2.9239654541015625,-1.0188817977905273,0.0,17.0,,,,,,,,,,,,,,,,,,,,,,,,,,,,,,,,,,,,,,,,,,,,,
0.0,-0.23480543494224548,2.8005218505859375,0.007807260844856501,-0.34047916531562805,-0.40650662779808044,0.04297410324215889,-0.21363532543182373,0.019446536898612976,0.05575491115450859,0.0,2.63214111328125,-1.30462646484375,-0.19175104796886444,14.5,0.0,2.811312675476074,-1.164078712463379,-0.19175104796886444,12.75,0.0,2.59244441986084,-0.5314350128173828,-0.19175104796886444,14.0,0.0,2.229452133178711,0.06079673767089844,-0.3835020959377289,13.75,0.0,2.287745475769043,0.06723403930664062,-0.3835020959377289,28.75,0.0,2.309560775756836,0.05829334259033203,-0.3835020959377289,29.5,0.0,2.3903846740722656,-0.0025033950805664062,-0.3835020959377289,22.25,0.0,2.857804298400879,-1.1472702026367188,0.0,15.25,,,,,,,,,,,,,,,,,,,,,,,,,,,,,,,,,,,,,,,,
0.0,-0.29383960366249084,2.7634437084198,0.008739881217479706,-0.4010273218154907,-0.4176505208015442,0.043018776923418045,-0.24441327154636383,-0.008771548047661781,0.052327170968055725,0.0,2.670764923095703,-1.1726617813110352,-0.19175104796886444,16.75,0.0,2.4261474609375,-0.7481575012207031,-0.19175104796886444,13.75,0.0,2.624630928039551,-0.9437799453735352,-0.19175104796886444,15.75,0.0,2.8395652770996094,-1.0095834732055664,-0.19175104796886444,14.75,0.0,2.222299575805664,-0.05507469177246094,-0.3835020959377289,23.75,0.0,2.2487640380859375,-0.02682209014892578,-0.3835020959377289,20.5,0.0,2.8259754180908203,-1.119375228881836,0.0,14.75,0.0,2.7637481689453125,-0.8264780044555664,0.0,18.0,,,,,,,,,,,,,,,,,,,,,,,,,,,,,,,,,,,,,,,,
0.0,-0.26358163356781006,2.7285313606262207,0.009564153850078583,-0.3034426271915436,-0.399425745010376,0.04280630871653557,-0.14338843524456024,0.015640346333384514,0.049050018191337585,0.0,2.59244441986084,-0.8064508438110352,-0.19175104796886444,12.25,0.0,2.397894859313965,-0.5232095718383789,-0.19175104796886444,13.25,0.0,2.155780792236328,0.026106834411621094,-0.3835020959377289,19.75,0.0,2.16829776763916,0.047206878662109375,-0.3835020959377289,27.0,0.0,2.2194385528564453,-0.01895427703857422,-0.3835020959377289,21.25,0.0,2.8406381607055664,-1.1057853698730469,0.0,14.0,0.0,2.7365684509277344,-0.9126663208007812,0.0,15.0,,,,,,,,,,,,,,,,,,,,,,,,,,,,,,,,,,,,,,,,,,,,,
0.0,-0.34202373027801514,2.682415246963501,0.01007684413343668,-0.3975275754928589,-0.4150817394256592,0.04187373071908951,-0.20896810293197632,-0.006630806252360344,0.045575354248285294,0.0,2.410411834716797,-0.5525350570678711,-0.3835020959377289,14.0,0.0,2.269864082336426,-0.24211406707763672,-0.3835020959377289,16.75,0.0,2.1514892578125,-0.04184246063232422,-0.3835020959377289,13.5,0.0,2.1747350692749023,-0.05793571472167969,-0.3835020959377289,21.25,0.0,2.7244091033935547,-1.0378360748291016,0.0,15.75,0.0,2.808809280395508,-1.1740922927856445,0.0,15.25,0.0,2.621769905090332,-0.2918243408203125,0.0,20.5,,,,,,,,,,,,,,,,,,,,,,,,,,,,,,,,,,,,,,,,,,,,,
0.0,-0.3347302973270416,2.6301681995391846,0.011651922948658466,-0.3328525125980377,-0.44396451115608215,0.0423087552189827,-0.1331237554550171,-0.05195361375808716,0.04313156008720398,0.0,2.5953054428100586,-1.3718605041503906,-0.19175104796886444,13.0,0.0,2.35140323638916,-0.4438161849975586,-0.5752531439065933,14.25,0.0,2.2301673889160156,-0.012516975402832031,-0.19175104796886444,22.75,0.0,2.1407604217529297,0.10657310485839844,-0.3835020959377289,23.0,0.0,2.165079116821289,0.10156631469726562,-0.3835020959377289,27.5,0.0,2.7104616165161133,-1.0993480682373047,0.0,16.0,0.0,2.7916431427001953,-1.1665821075439453,0.0,14.75,0.0,2.616763114929199,-0.39517879486083984,0.0,18.0,,,,,,,,,,,,,,,,,,,,,,,,,,,,,,,,,,,,,,,,
0.0,-0.26577726006507874,2.5978879928588867,0.010558940470218658,-0.17459599673748016,-0.4275790750980377,0.03895308077335358,0.00898723304271698,-0.03442461043596268,0.03872200474143028,0.0,2.5784969329833984,-1.1941194534301758,-0.7670041918754578,19.25,0.0,2.633213996887207,-1.152634620666504,-0.7670041918754578,18.5,0.0,2.731919288635254,-1.134037971496582,-0.19175104796886444,12.5,0.0,2.2258758544921875,0.06079673767089844,-0.19175104796886444,23.0,0.0,2.1468400955200195,0.14734268188476562,-0.19175104796886444,19.75,0.0,2.179384231567383,0.11229515075683594,-0.19175104796886444,27.25,0.0,2.639293670654297,-1.2778043746948242,0.0,14.0,0.0,2.643585205078125,-0.61798095703125,0.0,15.25,,,,,,,,,,,,,,,,,,,,,,,,,,,,,,,,,,,,,,,,
0.0,-0.28597426414489746,2.5683155059814453,0.009476734325289726,-0.17802268266677856,-0.4167386591434479,0.035786423832178116,0.005296788178384304,-0.022809814661741257,0.034722715616226196,0.0,2.476930618286133,-1.1322498321533203,-0.5752531439065933,16.5,0.0,2.627134323120117,-1.1136531829833984,-0.9587552398443222,12.25,0.0,2.4472475051879883,-0.8600950241088867,-0.5752531439065933,15.5,0.0,2.29489803314209,-0.6279945373535156,-0.3835020959377289,13.5,0.0,2.1636486053466797,-0.21922588348388672,-0.19175104796886444,15.5,0.0,2.6607513427734375,-1.21307373046875,0.0,13.75,0.0,2.4372339248657227,-0.4642009735107422,0.0,20.25,0.0,2.648591995239258,-0.5500316619873047,0.0,14.75,,,,,,,,,,,,,,,,,,,,,,,,,,,,,,,,,,,,,,,,
0.0,-0.2872214913368225,2.520986795425415,0.009852913208305836,-0.14840680360794067,-0.4324195683002472,0.0346720814704895,0.03140620142221451,-0.043653134256601334,0.032103218138217926,0.0,2.440810203552246,-1.1858940124511719,-1.1505062878131866,18.25,0.0,2.520918846130371,-1.1973381042480469,-0.19175104796886444,13.25,0.0,2.393960952758789,-1.0088682174682617,-0.19175104796886444,17.25,0.0,2.113938331604004,0.034332275390625,-0.19175104796886444,19.75,0.0,2.1468400955200195,0.013589859008789062,-0.19175104796886444,24.25,0.0,2.232670783996582,-0.06937980651855469,-0.19175104796886444,18.5,0.0,2.547025680541992,-1.0700225830078125,0.0,15.75,,,,,,,,,,,,,,,,,,,,,,,,,,,,,,,,,,,,,,,,,,,,,
0.0,-0.27724602818489075,2.4864981174468994,0.009137772023677826,-0.10669185221195221,-0.4046493172645569,0.0321228913962841,0.060864537954330444,0.005009032785892487,0.02885134145617485,0.0,2.295970916748047,-1.3747215270996094,-0.3835020959377289,14.0,0.0,2.325296401977539,-1.2238025665283203,-0.3835020959377289,15.25,0.0,2.0384788513183594,0.39839744567871094,-0.19175104796886444,20.75,0.0,2.0399093627929688,0.45669078826904297,-0.19175104796886444,21.5,0.0,2.501249313354492,-1.178741455078125,0.0,16.5,0.0,2.385735511779785,-0.8121728897094727,0.0,17.0,,,,,,,,,,,,,,,,,,,,,,,,,,,,,,,,,,,,,,,,,,,,,,,,,,
0.0,-0.36029672622680664,2.456728219985962,0.009103957563638687,-0.22782045602798462,-0.3837260901927948,0.030524317175149918,-0.05183812230825424,0.039619654417037964,0.026312846690416336,0.0,2.180814743041992,-1.4641284942626953,-0.19175104796886444,18.75,0.0,2.255558967590332,-1.4251470565795898,-0.19175104796886444,17.5,0.0,2.0112991333007812,0.1780986785888672,-0.3835020959377289,17.25,0.0,2.0377635955810547,0.2034902572631836,-0.3835020959377289,25.0,0.0,2.03704833984375,0.25641918182373047,-0.3835020959377289,24.25,0.0,2.512335777282715,-1.1368989944458008,0.0,15.75,0.0,2.416849136352539,-0.7996559143066406,0.0,17.25,,,,,,,,,,,,,,,,,,,,,,,,,,,,,,,,,,,,,,,,,,,,,
0.0,-0.3211488425731659,2.4135940074920654,0.0094455536454916,-0.12571711838245392,-0.3724153935909271,0.029377464205026627,0.0408468171954155,0.053467847406864166,0.024131275713443756,0.0,2.3496150970458984,-1.3768672943115234,-0.19175104796886444,12.5,0.0,1.981973648071289,-0.2582073211669922,-0.3835020959377289,13.5,0.0,2.6650428771972656,-1.4330148696899414,0.0,12.75,,,,,,,,,,,,,,,,,,,,,,,,,,,,,,,,,,,,,,,,,,,,,,,,,,,,,,,,,,,,,,,,,
0.0,-0.30268797278404236,2.3680739402770996,0.00997210294008255,-0.06723170727491379,-0.37531358003616333,0.0284255463629961,0.0890490710735321,0.04444289207458496,0.022168008610606194,0.0,2.0513534545898438,-0.06937980651855469,-0.3835020959377289,14.25,0.0,1.946568489074707,-0.03826618194580078,-0.3835020959377289,16.0,0.0,1.970529556274414,-0.043272972106933594,-0.3835020959377289,18.5,0.0,2.2716522216796875,-1.3718605041503906,0.0,17.0,0.0,2.417922019958496,-1.3246536254882812,0.0,18.25,0.0,2.004861831665039,0.008225440979003906,0.0,15.5,,,,,,,,,,,,,,,,,,,,,,,,,,,,,,,,,,,,,,,,,,,,,,,,,,
0.0,-0.27145007252693176,2.3330705165863037,0.009630844928324223,0.007008697837591171,-0.36025503277778625,0.026319747790694237,0.14540138840675354,0.05843636393547058,0.01964925415813923,0.0,2.2870302200317383,-1.351475715637207,0.0,17.0,0.0,2.3936033248901367,-1.3153553009033203,0.0,17.5,0.0,2.4819374084472656,-1.301407814025879,0.0,13.0,0.0,1.9823312759399414,0.010013580322265625,0.0,15.5,,,,,,,,,,,,,,,,,,,,,,,,,,,,,,,,,,,,,,,,,,,,,,,,,,,,,,,,,,,,
0.0,-0.2915143072605133,2.313269853591919,0.008762289769947529,-0.014723759144544601,-0.34650492668151855,0.023590993136167526,0.11485657095909119,0.055965423583984375,0.01689559407532215,0.0,1.9701719284057617,-0.21386146545410156,-0.3835020959377289,12.75,0.0,1.8306970596313477,-0.13518333435058594,-0.3835020959377289,17.5,0.0,1.865386962890625,-0.14448165893554688,-0.3835020959377289,24.0,0.0,1.875758171081543,-0.16307830810546875,-0.3835020959377289,22.5,0.0,2.304196357727051,-1.3200044631958008,0.0,16.0,0.0,2.4118423461914062,-1.2727975845336914,0.0,17.0,0.0,2.501249313354492,-1.2359619140625,0.0,12.75,,,,,,,,,,,,,,,,,,,,,,,,,,,,,,,,,,,,,,,,,,,,,
0.0,-0.40288251638412476,2.2759926319122314,0.008452046662569046,-0.1906256228685379,-0.38825902342796326,0.02166302315890789,-0.04140417277812958,-0.022687949240207672,0.014726233668625355,0.0,2.2906064987182617,-1.201629638671875,-0.19175104796886444,12.75,0.0,2.396106719970703,-1.3117790222167969,0.0,17.75,0.0,2.515554428100586,-1.2316703796386719,0.0,13.5,,,,,,,,,,,,,,,,,,,,,,,,,,,,,,,,,,,,,,,,,,,,,,,,,,,,,,,,,,,,,,,,,
0.0,-0.42791643738746643,2.250673294067383,0.007728240918368101,-0.20356860756874084,-0.37921515107154846,0.01928265020251274,-0.04821819067001343,-0.017490999773144722,0.012418976053595543,0.0,2.2655725479125977,-1.2413263320922852,-0.19175104796886444,13.5,,,,,,,,,,,,,,,,,,,,,,,,,,,,,,,,,,,,,,,,,,,,,,,,,,,,,,,,,,,,,,,,,,,,,,,,,,,
0.0,-0.45847150683403015,2.2219884395599365,0.00821559876203537,-0.22532802820205688,-0.3703458309173584,0.01856817491352558,-0.06295228004455566,-0.007699655368924141,0.011234873905777931,0.0,2.201557159423828,-1.4308691024780273,-0.19175104796886444,12.75,0.0,2.2344589233398438,-1.2831687927246094,-0.19175104796886444,15.5,0.0,2.2133588790893555,-1.4258623123168945,0.0,15.0,0.0,2.3975372314453125,-1.284956932067871,0.0,16.0,,,,,,,,,,,,,,,,,,,,,,,,,,,,,,,,,,,,,,,,,,,,,,,,,,,,,,,,,,,,
0.0,-0.43225693702697754,2.1968085765838623,0.00754060223698616,-0.14864292740821838,-0.35082459449768066,0.016333818435668945,0.006765872240066528,0.011721432209014893,0.009189208038151264,0.0,2.262711524963379,-1.3396739959716797,0.0,14.25,0.0,2.401113510131836,-1.2717247009277344,0.0,15.5,,,,,,,,,,,,,,,,,,,,,,,,,,,,,,,,,,,,,,,,,,,,,,,,,,,,,,,,,,,,,,,,,,,,,,
0.0,-0.47499334812164307,2.1614840030670166,0.008118918165564537,-0.19439485669136047,-0.35286009311676025,0.01582423225045204,-0.032083578407764435,0.008735344745218754,0.008312036283314228,0.0,1.3661384582519531,-1.0771751403808594,-0.19175104796886444,12.25,0.0,1.3707876205444336,-1.1458396911621094,-0.19175104796886444,14.0,0.0,2.27200984954834,-1.296401023864746,0.0,13.75,0.0,2.4132728576660156,-1.178741455078125,0.0,13.0,,,,,,,,,,,,,,,,,,,,,,,,,,,,,,,,,,,,,,,,,,,,,,,,,,,,,,,,,,,,
0.0,-0.40157797932624817,2.1303517818450928,0.00783848762512207,-0.044799745082855225,-0.3427538275718689,0.01420624740421772,0.09501203149557114,0.011686337180435658,0.006805576384067535,0.0,2.2323131561279297,-1.2992620468139648,0.0,12.5,,,,,,,,,,,,,,,,,,,,,,,,,,,,,,,,,,,,,,,,,,,,,,,,,,,,,,,,,,,,,,,,,,,,,,,,,,,
0.0,-0.40558290481567383,2.096134901046753,0.009293139912188053,0.0,0.0,0.0,0.0,0.0,0.0,,,,,,,,,,,,,,,,,,,,,,,,,,,,,,,,,,,,,,,,,,,,,,,,,,,,,,,,,,,,,,,,,,,,,,,,,,,,,,,,
0.0,-0.3289511799812317,2.0583956241607666,0.006911196745932102,0.13019490242004395,-0.09042268991470337,-0.0030752187594771385,0.11710170656442642,-0.13112641870975494,-0.0019264703150838614,,,,,,,,,,,,,,,,,,,,,,,,,,,,,,,,,,,,,,,,,,,,,,,,,,,,,,,,,,,,,,,,,,,,,,,,,,,,,,,,
0.0,-0.3827102780342102,2.04601788520813,0.006072203628718853,0.037016697227954865,-0.11667044460773468,-0.003931023646146059,0.03387810289859772,-0.1463249921798706,-0.0023351446725428104,0.0,1.7234086990356445,0.046133995056152344,-0.19175104796886444,17.0,0.0,1.7584562301635742,0.09047985076904297,-0.19175104796886444,17.25,,,,,,,,,,,,,,,,,,,,,,,,,,,,,,,,,,,,,,,,,,,,,,,,,,,,,,,,,,,,,,,,,,,,,,
0.0,-0.45760804414749146,2.0303807258605957,0.005141541827470064,-0.07989513128995895,-0.1439814269542694,-0.004822718445211649,-0.06029385328292847,-0.1594020575284958,-0.00273680267855525,,,,,,,,,,,,,,,,,,,,,,,,,,,,,,,,,,,,,,,,,,,,,,,,,,,,,,,,,,,,,,,,,,,,,,,,,,,,,,,,
0.0,-0.6359310150146484,2.0069127082824707,0.0037707968149334192,-0.33818140625953674,-0.1885308176279068,-0.006171090062707663,-0.2525952160358429,-0.18975023925304413,-0.0033850660547614098,0.0,1.7352104187011719,0.05614757537841797,-0.19175104796886444,19.25,0.0,1.7577409744262695,0.08118152618408203,-0.19175104796886444,20.0,,,,,,,,,,,,,,,,,,,,,,,,,,,,,,,,,,,,,,,,,,,,,,,,,,,,,,,,,,,,,,,,,,,,,,
0.0,-0.6710121035575867,1.9871108531951904,0.0031367624178528786,0.0,0.0,0.0,0.0,0.0,0.0,0.0,1.7323493957519531,-0.11336803436279297,-0.19175104796886444,15.75,,,,,,,,,,,,,,,,,,,,,,,,,,,,,,,,,,,,,,,,,,,,,,,,,,,,,,,,,,,,,,,,,,,,,,,,,,,
0.0,-0.8319240808486938,1.9058748483657837,0.0025282546412199736,-0.22982466220855713,-0.12890750169754028,-0.0007392188999801874,-0.1662292182445526,-0.12012933194637299,-0.00044729962246492505,0.0,1.7348527908325195,-0.01823902130126953,0.0,16.0,0.0,1.760244369506836,0.007867813110351562,0.0,17.25,,,,,,,,,,,,,,,,,,,,,,,,,,,,,,,,,,,,,,,,,,,,,,,,,,,,,,,,,,,,,,,,,,,,,,
0.0,-0.8319240808486938,1.9058748483657837,0.0025282546412199736,-0.22982466220855713,-0.12890750169754028,-0.0007392188999801874,-0.1662292182445526,-0.12012933194637299,-0.00044729962246492505,0.0,1.7348527908325195,0.009298324584960938,0.0,16.25,,,,,,,,,,,,,,,,,,,,,,,,,,,,,,,,,,,,,,,,,,,,,,,,,,,,,,,,,,,,,,,,,,,,,,,,,,,
0.0,-0.8319240808486938,1.9058748483657837,0.0025282546412199736,-0.22982466220855713,-0.12890750169754028,-0.0007392188999801874,-0.1662292182445526,-0.12012933194637299,-0.00044729962246492505,0.0,1.736283302307129,0.012516975402832031,0.0,16.25,,,,,,,,,,,,,,,,,,,,,,,,,,,,,,,,,,,,,,,,,,,,,,,,,,,,,,,,,,,,,,,,,,,,,,,,,,,
0.0,-0.8319240808486938,1.9058748483657837,0.0025282546412199736,-0.22982466220855713,-0.12890750169754028,-0.0007392188999801874,-0.1662292182445526,-0.12012933194637299,-0.00044729962246492505,0.0,1.7284154891967773,0.019669532775878906,0.0,16.5,,,,,,,,,,,,,,,,,,,,,,,,,,,,,,,,,,,,,,,,,,,,,,,,,,,,,,,,,,,,,,,,,,,,,,,,,,,
0.0,-0.7249783873558044,1.9215800762176514,0.002293202094733715,-0.07101738452911377,-0.10574565827846527,-0.0010176199721172452,-0.04389567673206329,-0.10499726980924606,-0.0006120530888438225,,,,,,,,,,,,,,,,,,,,,,,,,,,,,,,,,,,,,,,,,,,,,,,,,,,,,,,,,,,,,,,,,,,,,,,,,,,,,,,,
0.0,-0.7249783873558044,1.9215800762176514,0.002293202094733715,-0.07101738452911377,-0.10574565827846527,-0.0010176199721172452,-0.04389567673206329,-0.10499726980924606,-0.0006120530888438225,,,,,,,,,,,,,,,,,,,,,,,,,,,,,,,,,,,,,,,,,,,,,,,,,,,,,,,,,,,,,,,,,,,,,,,,,,,,,,,,
0.0,-0.5651423335075378,1.945817232131958,0.0019202902913093567,0.16270917654037476,-0.06544941663742065,-0.0014598462730646133,0.13265760242938995,-0.072810098528862,-0.0008728436077944934,,,,,,,,,,,,,,,,,,,,,,,,,,,,,,,,,,,,,,,,,,,,,,,,,,,,,,,,,,,,,,,,,,,,,,,,,,,,,,,,
0.0,-0.5265048742294312,1.94631028175354,0.001773641793988645,0.21835550665855408,-0.06222829967737198,-0.001634753542020917,0.17405296862125397,-0.06991160660982132,-0.0009763769339770079,,,,,,,,,,,,,,,,,,,,,,,,,,,,,,,,,,,,,,,,,,,,,,,,,,,,,,,,,,,,,,,,,,,,,,,,,,,,,,,,
0.0,-0.5265048742294312,1.94631028175354,0.001773641793988645,0.21835550665855408,-0.06222829967737198,-0.001634753542020917,0.17405296862125397,-0.06991160660982132,-0.0009763769339770079,,,,,,,,,,,,,,,,,,,,,,,,,,,,,,,,,,,,,,,,,,,,,,,,,,,,,,,,,,,,,,,,,,,,,,,,,,,,,,,,
0.0,-0.5265048742294312,1.94631028175354,0.001773641793988645,0.21835550665855408,-0.06222829967737198,-0.001634753542020917,0.17405296862125397,-0.06991160660982132,-0.0009763769339770079,,,,,,,,,,,,,,,,,,,,,,,,,,,,,,,,,,,,,,,,,,,,,,,,,,,,,,,,,,,,,,,,,,,,,,,,,,,,,,,,
0.0,-0.5265048742294312,1.94631028175354,0.001773641793988645,0.21835550665855408,-0.06222829967737198,-0.001634753542020917,0.17405296862125397,-0.06991160660982132,-0.0009763769339770079,,,,,,,,,,,,,,,,,,,,,,,,,,,,,,,,,,,,,,,,,,,,,,,,,,,,,,,,,,,,,,,,,,,,,,,,,,,,,,,,
0.0,-0.5265048742294312,1.94631028175354,0.001773641793988645,0.21835550665855408,-0.06222829967737198,-0.001634753542020917,0.17405296862125397,-0.06991160660982132,-0.0009763769339770079,,,,,,,,,,,,,,,,,,,,,,,,,,,,,,,,,,,,,,,,,,,,,,,,,,,,,,,,,,,,,,,,,,,,,,,,,,,,,,,,
0.0,-0.5265048742294312,1.94631028175354,0.001773641793988645,0.21835550665855408,-0.06222829967737198,-0.001634753542020917,0.17405296862125397,-0.06991160660982132,-0.0009763769339770079,,,,,,,,,,,,,,,,,,,,,,,,,,,,,,,,,,,,,,,,,,,,,,,,,,,,,,,,,,,,,,,,,,,,,,,,,,,,,,,,
0.0,-0.5265048742294312,1.94631028175354,0.001773641793988645,0.21835550665855408,-0.06222829967737198,-0.001634753542020917,0.17405296862125397,-0.06991160660982132,-0.0009763769339770079,,,,,,,,,,,,,,,,,,,,,,,,,,,,,,,,,,,,,,,,,,,,,,,,,,,,,,,,,,,,,,,,,,,,,,,,,,,,,,,,
0.0,-0.5265048742294312,1.94631028175354,0.001773641793988645,0.21835550665855408,-0.06222829967737198,-0.001634753542020917,0.17405296862125397,-0.06991160660982132,-0.0009763769339770079,,,,,,,,,,,,,,,,,,,,,,,,,,,,,,,,,,,,,,,,,,,,,,,,,,,,,,,,,,,,,,,,,,,,,,,,,,,,,,,,
0.0,-0.5265048742294312,1.94631028175354,0.001773641793988645,0.21835550665855408,-0.06222829967737198,-0.001634753542020917,0.17405296862125397,-0.06991160660982132,-0.0009763769339770079,,,,,,,,,,,,,,,,,,,,,,,,,,,,,,,,,,,,,,,,,,,,,,,,,,,,,,,,,,,,,,,,,,,,,,,,,,,,,,,,
0.0,-0.5265048742294312,1.94631028175354,0.001773641793988645,0.21835550665855408,-0.06222829967737198,-0.001634753542020917,0.17405296862125397,-0.06991160660982132,-0.0009763769339770079,,,,,,,,,,,,,,,,,,,,,,,,,,,,,,,,,,,,,,,,,,,,,,,,,,,,,,,,,,,,,,,,,,,,,,,,,,,,,,,,
0.0,-0.5265048742294312,1.94631028175354,0.001773641793988645,0.21835550665855408,-0.06222829967737198,-0.001634753542020917,0.17405296862125397,-0.06991160660982132,-0.0009763769339770079,,,,,,,,,,,,,,,,,,,,,,,,,,,,,,,,,,,,,,,,,,,,,,,,,,,,,,,,,,,,,,,,,,,,,,,,,,,,,,,,
0.0,-0.5265048742294312,1.94631028175354,0.001773641793988645,0.21835550665855408,-0.06222829967737198,-0.001634753542020917,0.17405296862125397,-0.06991160660982132,-0.0009763769339770079,,,,,,,,,,,,,,,,,,,,,,,,,,,,,,,,,,,,,,,,,,,,,,,,,,,,,,,,,,,,,,,,,,,,,,,,,,,,,,,,
0.0,-0.5265048742294312,1.94631028175354,0.001773641793988645,0.21835550665855408,-0.06222829967737198,-0.001634753542020917,0.17405296862125397,-0.06991160660982132,-0.0009763769339770079,,,,,,,,,,,,,,,,,,,,,,,,,,,,,,,,,,,,,,,,,,,,,,,,,,,,,,,,,,,,,,,,,,,,,,,,,,,,,,,,
0.0,-0.5265048742294312,1.94631028175354,0.001773641793988645,0.21835550665855408,-0.06222829967737198,-0.001634753542020917,0.17405296862125397,-0.06991160660982132,-0.0009763769339770079,,,,,,,,,,,,,,,,,,,,,,,,,,,,,,,,,,,,,,,,,,,,,,,,,,,,,,,,,,,,,,,,,,,,,,,,,,,,,,,,
0.0,-0.5265048742294312,1.94631028175354,0.001773641793988645,0.21835550665855408,-0.06222829967737198,-0.001634753542020917,0.17405296862125397,-0.06991160660982132,-0.0009763769339770079,,,,,,,,,,,,,,,,,,,,,,,,,,,,,,,,,,,,,,,,,,,,,,,,,,,,,,,,,,,,,,,,,,,,,,,,,,,,,,,,
0.0,-0.5265048742294312,1.94631028175354,0.001773641793988645,0.21835550665855408,-0.06222829967737198,-0.001634753542020917,0.17405296862125397,-0.06991160660982132,-0.0009763769339770079,,,,,,,,,,,,,,,,,,,,,,,,,,,,,,,,,,,,,,,,,,,,,,,,,,,,,,,,,,,,,,,,,,,,,,,,,,,,,,,,
0.0,-0.365682989358902,1.946340560913086,0.0013368551153689623,0.44455116987228394,-0.02516331523656845,-0.002159707248210907,0.33622103929519653,-0.011252306401729584,-0.001284669153392315,,,,,,,,,,,,,,,,,,,,,,,,,,,,,,,,,,,,,,,,,,,,,,,,,,,,,,,,,,,,,,,,,,,,,,,,,,,,,,,,
0.0,-0.365682989358902,1.946340560913086,0.0013368551153689623,0.44455116987228394,-0.02516331523656845,-0.002159707248210907,0.33622103929519653,-0.011252306401729584,-0.001284669153392315,,,,,,,,,,,,,,,,,,,,,,,,,,,,,,,,,,,,,,,,,,,,,,,,,,,,,,,,,,,,,,,,,,,,,,,,,,,,,,,,
0.0,-0.365682989358902,1.946340560913086,0.0013368551153689623,0.44455116987228394,-0.02516331523656845,-0.002159707248210907,0.33622103929519653,-0.011252306401729584,-0.001284669153392315,,,,,,,,,,,,,,,,,,,,,,,,,,,,,,,,,,,,,,,,,,,,,,,,,,,,,,,,,,,,,,,,,,,,,,,,,,,,,,,,
0.0,-0.365682989358902,1.946340560913086,0.0013368551153689623,0.44455116987228394,-0.02516331523656845,-0.002159707248210907,0.33622103929519653,-0.011252306401729584,-0.001284669153392315,,,,,,,,,,,,,,,,,,,,,,,,,,,,,,,,,,,,,,,,,,,,,,,,,,,,,,,,,,,,,,,,,,,,,,,,,,,,,,,,
0.0,-0.365682989358902,1.946340560913086,0.0013368551153689623,0.44455116987228394,-0.02516331523656845,-0.002159707248210907,0.33622103929519653,-0.011252306401729584,-0.001284669153392315,,,,,,,,,,,,,,,,,,,,,,,,,,,,,,,,,,,,,,,,,,,,,,,,,,,,,,,,,,,,,,,,,,,,,,,,,,,,,,,,
0.0,-0.365682989358902,1.946340560913086,0.0013368551153689623,0.44455116987228394,-0.02516331523656845,-0.002159707248210907,0.33622103929519653,-0.011252306401729584,-0.001284669153392315,0.0,1.7573833465576172,-0.02682209014892578,-0.19175104796886444,13.0,0.0,1.9050836563110352,0.05900859832763672,-0.19175104796886444,12.5,0.0,1.8160343170166016,0.08797645568847656,-0.19175104796886444,16.0,,,,,,,,,,,,,,,,,,,,,,,,,,,,,,,,,,,,,,,,,,,,,,,,,,,,,,,,,,,,,,,,,
0.0,-0.365682989358902,1.946340560913086,0.0013368551153689623,0.44455116987228394,-0.02516331523656845,-0.002159707248210907,0.33622103929519653,-0.011252306401729584,-0.001284669153392315,0.0,1.713395118713379,0.028252601623535156,-0.19175104796886444,19.25,0.0,1.7377138137817383,0.06115436553955078,-0.3835020959377289,19.25,,,,,,,,,,,,,,,,,,,,,,,,,,,,,,,,,,,,,,,,,,,,,,,,,,,,,,,,,,,,,,,,,,,,,,
0.0,-0.365682989358902,1.946340560913086,0.0013368551153689623,0.44455116987228394,-0.02516331523656845,-0.002159707248210907,0.33622103929519653,-0.011252306401729584,-0.001284669153392315,0.0,1.667618751525879,-0.44667720794677734,-0.3835020959377289,13.25,0.0,1.713395118713379,-0.4731416702270508,-0.3835020959377289,15.0,0.0,1.6340017318725586,0.3637075424194336,-0.3835020959377289,12.75,,,,,,,,,,,,,,,,,,,,,,,,,,,,,,,,,,,,,,,,,,,,,,,,,,,,,,,,,,,,,,,,,
0.0,-0.365682989358902,1.946340560913086,0.0013368551153689623,0.44455116987228394,-0.02516331523656845,-0.002159707248210907,0.33622103929519653,-0.011252306401729584,-0.001284669153392315,0.0,1.9512176513671875,-1.250624656677246,0.5752531439065933,13.0,0.0,2.0685195922851562,-0.823974609375,0.5752531439065933,14.5,,,,,,,,,,,,,,,,,,,,,,,,,,,,,,,,,,,,,,,,,,,,,,,,,,,,,,,,,,,,,,,,,,,,,,
0.0,-0.365682989358902,1.946340560913086,0.0013368551153689623,0.44455116987228394,-0.02516331523656845,-0.002159707248210907,0.33622103929519653,-0.011252306401729584,-0.001284669153392315,,,,,,,,,,,,,,,,,,,,,,,,,,,,,,,,,,,,,,,,,,,,,,,,,,,,,,,,,,,,,,,,,,,,,,,,,,,,,,,,
0.0,-0.365682989358902,1.946340560913086,0.0013368551153689623,0.44455116987228394,-0.02516331523656845,-0.002159707248210907,0.33622103929519653,-0.011252306401729584,-0.001284669153392315,0.0,1.7230510711669922,-0.30362606048583984,-0.3835020959377289,12.25,0.0,1.839280128479004,-1.553177833557129,0.0,16.75,0.0,1.5628337860107422,0.44918060302734375,0.0,12.5,,,,,,,,,,,,,,,,,,,,,,,,,,,,,,,,,,,,,,,,,,,,,,,,,,,,,,,,,,,,,,,,,
0.0,-0.365682989358902,1.946340560913086,0.0013368551153689623,0.44455116987228394,-0.02516331523656845,-0.002159707248210907,0.33622103929519653,-0.011252306401729584,-0.001284669153392315,0.0,1.6769170761108398,-0.28252601623535156,-0.19175104796886444,12.5,0.0,1.8317699432373047,-1.5288591384887695,0.0,18.0,0.0,1.9279718399047852,-0.43451786041259766,0.0,13.25,,,,,,,,,,,,,,,,,,,,,,,,,,,,,,,,,,,,,,,,,,,,,,,,,,,,,,,,,,,,,,,,,
0.0,-0.365682989358902,1.946340560913086,0.0013368551153689623,0.44455116987228394,-0.02516331523656845,-0.002159707248210907,0.33622103929519653,-0.011252306401729584,-0.001284669153392315,0.0,1.4376640319824219,0.39374828338623047,-0.19175104796886444,12.75,0.0,1.500248908996582,0.3980398178100586,-0.19175104796886444,21.5,0.0,1.5149116516113281,0.38230419158935547,-0.19175104796886444,22.0,0.0,1.5817880630493164,0.36585330963134766,-0.19175104796886444,13.75,0.0,1.9150972366333008,-1.2366771697998047,0.0,13.75,0.0,1.9272565841674805,-0.4388093948364258,0.0,13.0,0.0,1.9208192825317383,-0.4373788833618164,0.0,13.0,,,,,,,,,,,,,,,,,,,,,,,,,,,,,,,,,,,,,,,,,,,,,
0.0,-0.2952177822589874,1.9467872381210327,0.0011399834183976054,0.544686496257782,-0.022521812468767166,-0.0023927923757582903,0.4095827341079712,-0.011312372982501984,-0.0014222210738807917,0.0,1.651167869567871,-0.22137165069580078,-0.19175104796886444,13.25,0.0,1.4358758926391602,-0.08940696716308594,-0.19175104796886444,20.25,0.0,1.4755725860595703,-0.03612041473388672,-0.19175104796886444,25.0,0.0,1.5170574188232422,-0.001430511474609375,-0.19175104796886444,22.0,0.0,1.730203628540039,-1.5070438385009766,0.0,13.5,0.0,2.030611038208008,-0.8625984191894531,0.0,12.5,0.0,1.9297599792480469,-0.4177093505859375,0.0,12.75,0.0,1.4140605926513672,-0.16558170318603516,0.0,17.0,0.0,1.451253890991211,-0.14483928680419922,0.0,21.5,,,,,,,,,,,,,,,,,,,,,,,,,,,,,,,,,,,
0.0,-0.26282843947410583,1.9379009008407593,0.0010382869513705373,0.5886597633361816,-0.036213863641023636,-0.002512360457330942,0.44027405977249146,-0.026738241314888,-0.0014929245226085186,0.0,1.9741058349609375,-1.44195556640625,-0.19175104796886444,14.25,0.0,1.9730329513549805,-1.2313127517700195,-0.19175104796886444,12.75,0.0,2.00808048248291,-1.2820959091186523,-0.19175104796886444,16.75,0.0,1.3332366943359375,-0.1741647720336914,-0.19175104796886444,15.5,0.0,1.399397850036621,-0.16987323760986328,-0.19175104796886444,27.5,0.0,1.404404640197754,-0.14448165893554688,-0.19175104796886444,30.0,0.0,1.4483928680419922,-0.06723403930664062,-0.19175104796886444,24.5,0.0,1.7430782318115234,-1.4863014221191406,0.0,13.25,0.0,1.9172430038452148,-0.446319580078125,0.0,12.25,0.0,1.416921615600586,-0.14483928680419922,0.0,21.0,0.0,1.4505386352539062,-0.07367134094238281,0.0,26.0,0.0,1.5141963958740234,0.20062923431396484,0.0,24.0,,,,,,,,,,,,,,,,,,,,
0.0,-0.26416102051734924,1.91618013381958,0.0009177162428386509,0.581766664981842,-0.07458113133907318,-0.002653932198882103,0.4316098690032959,-0.06853920221328735,-0.0015772785991430283,0.0,1.946568489074707,-1.1905431747436523,-0.19175104796886444,13.75,0.0,2.003788948059082,-1.153707504272461,-0.19175104796886444,14.5,0.0,1.3890266418457031,-0.14340877532958984,0.19175104796886444,18.5,0.0,1.6264915466308594,0.08940696716308594,0.19175104796886444,17.25,0.0,1.4977455139160156,0.23853778839111328,0.19175104796886444,25.0,0.0,1.5385150909423828,0.24998188018798828,0.19175104796886444,25.0,0.0,1.8696784973144531,-1.3089179992675781,0.0,15.5,0.0,1.420140266418457,-0.20456314086914062,0.0,26.0,0.0,1.5124082565307617,0.3876686096191406,0.0,24.25,0.0,1.57928466796875,0.43129920959472656,0.0,16.75,,,,,,,,,,,,,,,,,,,,,,,,,,,,,,
0.0,-0.29753920435905457,1.9377498626708984,0.0008436767966486514,0.5403175950050354,-0.024258825927972794,-0.0027526933699846268,0.4052214026451111,-0.00229838490486145,-0.0016367355128750205,0.0,1.739501953125,-1.3589859008789062,-0.3835020959377289,14.25,0.0,1.7148256301879883,-1.507401466369629,-0.19175104796886444,13.0,0.0,1.3833045959472656,-0.1709461212158203,0.19175104796886444,22.0,0.0,1.3675689697265625,-0.17595291137695312,0.19175104796886444,22.5,0.0,1.718759536743164,-0.03254413604736328,0.19175104796886444,14.25,0.0,1.5435218811035156,0.34368038177490234,0.19175104796886444,17.0,0.0,1.8271207809448242,-1.3697147369384766,0.0,16.25,0.0,1.9233226776123047,-0.536799430847168,0.0,12.0,0.0,1.398324966430664,-0.22029876708984375,0.0,21.5,0.0,1.5177726745605469,0.36728382110595703,0.0,25.0,0.0,1.582503318786621,0.38123130798339844,0.0,17.5,,,,,,,,,,,,,,,,,,,,,,,,,
0.0,-0.29753920435905457,1.9377498626708984,0.0008436767966486514,0.5403175950050354,-0.024258825927972794,-0.0027526933699846268,0.4052214026451111,-0.00229838490486145,-0.0016367355128750205,0.0,1.8124580383300781,-1.3804435729980469,-0.19175104796886444,24.0,0.0,1.8364191055297852,-1.4094114303588867,-0.19175104796886444,25.25,0.0,1.7924308776855469,-1.2238025665283203,-0.3835020959377289,17.0,0.0,1.9043684005737305,-1.4140605926513672,-0.19175104796886444,17.75,0.0,1.4380216598510742,-0.22780895233154297,0.19175104796886444,14.5,0.0,1.6804933547973633,0.23567676544189453,0.19175104796886444,18.0,0.0,1.6089677810668945,0.37479400634765625,0.19175104796886444,21.5,0.0,1.5234947204589844,0.2689361572265625,0.0,24.5,0.0,1.6018152236938477,0.2739429473876953,0.0,16.5,,,,,,,,,,,,,,,,,,,,,,,,,,,,,,,,,,,
0.0,-0.29978951811790466,1.9311758279800415,0.0008155549294315279,0.5360408425331116,-0.03593016043305397,-0.0027852263301610947,0.4014028310775757,-0.014955149963498116,-0.0016559396171942353,0.0,1.7927885055541992,-1.4673471450805664,-0.19175104796886444,12.75,0.0,1.8371343612670898,-1.0342597961425781,-0.19175104796886444,12.75,0.0,1.7112493515014648,-0.903010368347168,-0.19175104796886444,17.75,0.0,1.7005205154418945,-0.6684064865112305,-0.19175104796886444,19.0,0.0,1.4641284942626953,0.08046627044677734,0.19175104796886444,15.5,0.0,1.523137092590332,0.1062154769897461,0.19175104796886444,22.75,0.0,1.5599727630615234,0.09512901306152344,0.19175104796886444,23.25,0.0,1.9412040710449219,-1.3203620910644531,0.0,19.25,0.0,2.00808048248291,-1.360774040222168,0.0,14.75,0.0,1.804947853088379,-0.9641647338867188,0.0,13.75,,,,,,,,,,,,,,,,,,,,,,,,,,,,,,
0.0,-0.3002065420150757,1.9262017011642456,0.0007868353859521449,0.5346086621284485,-0.040901221334934235,-0.0028200007509440184,0.399650901556015,-0.01746927574276924,-0.0016765412874519825,0.0,1.8267631530761719,-1.3933181762695312,0.19175104796886444,19.0,0.0,1.7827749252319336,-1.2077093124389648,0.19175104796886444,12.25,0.0,1.8242597579956055,-1.3310909271240234,0.19175104796886444,18.75,0.0,1.4494657516479492,-0.05829334259033203,0.19175104796886444,14.5,0.0,1.4870166778564453,-0.02181529998779297,0.19175104796886444,20.75,0.0,1.5134811401367188,0.04470348358154297,0.19175104796886444,19.25,0.0,2.0041465759277344,-1.3407468795776367,0.0,15.25,0.0,1.7877817153930664,-1.0707378387451172,0.0,14.75,0.0,1.4036893844604492,-0.2092123031616211,0.0,21.0,,,,,,,,,,,,,,,,,,,,,,,,,,,,,,,,,,,
0.0,-0.20630639791488647,1.912665605545044,0.0006844836170785129,0.6645501852035522,-0.04691584035754204,-0.0029398794285953045,0.49161386489868164,-0.01625002920627594,-0.0017458101501688361,0.0,1.8056631088256836,-1.3436079025268555,0.3835020959377289,17.5,0.0,1.8364191055297852,-1.3418197631835938,0.3835020959377289,14.75,0.0,1.5728473663330078,0.25784969329833984,-0.19175104796886444,24.5,0.0,1.5664100646972656,0.3014802932739258,-0.19175104796886444,27.5,0.0,1.5932321548461914,0.34332275390625,-0.19175104796886444,20.25,0.0,1.784205436706543,-1.100778579711914,0.0,15.5,0.0,1.4072656631469727,-0.22351741790771484,0.0,20.25,0.0,1.6050338745117188,0.2639293670654297,0.0,21.25,,,,,,,,,,,,,,,,,,,,,,,,,,,,,,,,,,,,,,,,
0.0,-0.1326562464237213,1.8787051439285278,0.0003218127822037786,0.7132015824317932,-0.07645655423402786,-0.0031897383742034435,0.4861413538455963,-0.03378130495548248,-0.0017917933873832226,0.0,1.7398595809936523,-1.518845558166504,0.3835020959377289,17.25,0.0,1.775979995727539,-1.518845558166504,0.3835020959377289,18.0,0.0,1.8796920776367188,-1.4920234680175781,0.3835020959377289,12.75,0.0,1.566767692565918,0.39017200469970703,-0.19175104796886444,17.75,0.0,1.4930963516235352,0.5536079406738281,-0.19175104796886444,15.75,0.0,1.7777681350708008,-1.109004020690918,0.0,16.25,0.0,1.408696174621582,-0.18739700317382812,0.0,19.75,0.0,1.6064643859863281,0.2599954605102539,0.0,20.5,,,,,,,,,,,,,,,,,,,,,,,,,,,,,,,,,,,,,,,,
0.0,-0.08427035063505173,1.8346582651138306,-1.3502200090442784e-05,0.7079024910926819,-0.11664190143346786,-0.003374630119651556,0.4334685504436493,-0.05993388965725899,-0.0017919056117534637,0.0,1.8031597137451172,-1.4376640319824219,0.19175104796886444,14.5,0.0,1.8346309661865234,-1.4891624450683594,0.19175104796886444,18.0,0.0,1.9419193267822266,-1.4473199844360352,0.19175104796886444,13.75,0.0,1.4841556549072266,-0.06687641143798828,-0.19175104796886444,18.75,0.0,1.433730125427246,0.00035762786865234375,-0.19175104796886444,18.75,0.0,1.4526844024658203,-0.019311904907226562,-0.19175104796886444,22.75,0.0,1.7766952514648438,-1.1036396026611328,0.0,15.0,,,,,,,,,,,,,,,,,,,,,,,,,,,,,,,,,,,,,,,,,,,,,
0.0,0.03667205944657326,1.8174552917480469,-0.00032244023168459535,0.8459485173225403,-0.0815991684794426,-0.003511886578053236,0.5221999287605286,0.024262335151433945,-0.0017639334546402097,0.0,1.8607378005981445,-1.2745857238769531,0.19175104796886444,13.0,0.0,1.8900632858276367,-1.371145248413086,0.19175104796886444,14.0,0.0,1.4348030090332031,0.0064373016357421875,-0.19175104796886444,18.5,0.0,1.4612674713134766,0.025033950805664062,-0.19175104796886444,23.0,0.0,1.4984607696533203,0.06794929504394531,-0.19175104796886444,20.5,0.0,1.4480352401733398,-0.00286102294921875,0.0,19.25,0.0,1.611471176147461,0.2149343490600586,0.0,20.25,,,,,,,,,,,,,,,,,,,,,,,,,,,,,,,,,,,,,,,,,,,,,
0.0,0.09892702847719193,1.7977104187011719,-0.0005788119742646813,0.8605893850326538,-0.05345979332923889,-0.00355133437551558,0.4928155541419983,0.09012310206890106,-0.0016706966562196612,0.0,1.875758171081543,-1.4426708221435547,0.19175104796886444,14.75,0.0,1.85394287109375,-1.2989044189453125,0.19175104796886444,12.5,0.0,1.4348030090332031,0.00858306884765625,0.19175104796886444,20.0,0.0,1.465916633605957,0.06437301635742188,0.19175104796886444,24.25,0.0,1.4973878860473633,0.16021728515625,0.19175104796886444,21.5,0.0,1.4541149139404297,0.026464462280273438,0.0,18.25,0.0,1.6107559204101562,0.23066997528076172,0.0,20.0,,,,,,,,,,,,,,,,,,,,,,,,,,,,,,,,,,,,,,,,,,,,,
0.0,0.19140690565109253,1.7879524230957031,-0.0008055730722844601,0.9212841987609863,-0.03193956986069679,-0.003526243381202221,0.5058509111404419,0.11969553679227829,-0.0015395672526210546,0.0,2.0499229431152344,-1.3475418090820312,0.3835020959377289,15.25,0.0,2.0570755004882812,-1.257777214050293,0.3835020959377289,15.75,0.0,1.450181007385254,-0.04363059997558594,0.19175104796886444,21.25,0.0,1.486659049987793,-0.027894973754882812,0.19175104796886444,26.25,0.0,1.5192031860351562,-0.015020370483398438,0.19175104796886444,24.5,0.0,1.6089677810668945,-0.02753734588623047,0.19175104796886444,14.5,0.0,1.4505386352539062,0.02181529998779297,0.0,17.75,,,,,,,,,,,,,,,,,,,,,,,,,,,,,,,,,,,,,,,,,,,,,
0.0,0.2523881196975708,1.7745747566223145,-0.0009745914721861482,0.9137496948242188,-0.01562298834323883,-0.0034115384332835674,0.45728811621665955,0.14054960012435913,-0.001357430126518011,0.0,1.89971923828125,-1.4516115188598633,0.19175104796886444,13.5,0.0,1.4644861221313477,0.013947486877441406,0.19175104796886444,15.0,0.0,1.5202760696411133,0.09512901306152344,0.19175104796886444,22.0,0.0,1.5435218811035156,0.18525123596191406,0.19175104796886444,23.0,0.0,1.5950202941894531,0.31113624572753906,0.19175104796886444,16.0,0.0,2.0138025283813477,-1.3371706008911133,0.0,16.0,0.0,1.451253890991211,0.011801719665527344,0.0,18.25,,,,,,,,,,,,,,,,,,,,,,,,,,,,,,,,,,,,,,,,,,,,,
0.0,0.26683202385902405,1.766237735748291,-0.0010866348166018724,0.8229299187660217,0.013357673771679401,-0.003222636878490448,0.3422829508781433,0.17507310211658478,-0.0011404176475480199,0.0,2.032756805419922,-1.4437437057495117,0.3835020959377289,17.5,0.0,2.087116241455078,-1.307845115661621,0.3835020959377289,16.75,0.0,1.4591217041015625,-0.0826120376586914,0.3835020959377289,18.0,0.0,1.486659049987793,-0.06258487701416016,0.3835020959377289,23.25,0.0,1.542806625366211,0.030755996704101562,0.3835020959377289,21.25,0.0,1.6379356384277344,0.28073787689208984,0.3835020959377289,17.0,0.0,1.937270164489746,-1.3647079467773438,0.0,21.25,0.0,2.0020008087158203,-1.3861656188964844,0.0,18.75,,,,,,,,,,,,,,,,,,,,,,,,,,,,,,,,,,,,,,,,
0.0,0.3235422968864441,1.7325563430786133,-0.0011119976406916976,0.7938908338546753,-0.051145702600479126,-0.0029080957174301147,0.27741509675979614,0.06433092057704926,-0.0008533783257007599,0.0,1.8535852432250977,-1.5066862106323242,0.19175104796886444,14.0,0.0,1.9233226776123047,-1.5978813171386719,0.19175104796886444,14.25,0.0,1.8074512481689453,-1.2999773025512695,0.19175104796886444,12.25,0.0,1.4977455139160156,-0.07009506225585938,0.3835020959377289,15.0,0.0,1.5703439712524414,0.0400543212890625,0.3835020959377289,24.75,0.0,1.6025304794311523,0.1609325408935547,0.3835020959377289,27.25,0.0,1.633286476135254,0.2828836441040039,0.3835020959377289,22.75,0.0,1.8500089645385742,-1.386880874633789,0.0,14.75,0.0,2.0166635513305664,-1.3943910598754883,0.0,17.0,,,,,,,,,,,,,,,,,,,,,,,,,,,,,,,,,,,
0.0,0.40819913148880005,1.699047327041626,-0.001182357780635357,0.8164141178131104,-0.10911886394023895,-0.0026823258958756924,0.26418790221214294,-0.019186221063137054,-0.0006487005157396197,0.0,1.760244369506836,-1.5413761138916016,0.3835020959377289,13.5,0.0,1.5614032745361328,-0.17309188842773438,0.3835020959377289,20.25,0.0,1.6107559204101562,-0.1773834228515625,0.5752531439065933,22.0,0.0,1.6987323760986328,-0.14591217041015625,0.5752531439065933,18.5,0.0,1.8346309661865234,-1.4330148696899414,0.0,12.5,0.0,1.9243955612182617,-1.450181007385254,0.0,18.25,0.0,2.018094062805176,-1.4119148254394531,0.0,16.5,,,,,,,,,,,,,,,,,,,,,,,,,,,,,,,,,,,,,,,,,,,,,
0.0,0.32256144285202026,1.6877532005310059,-0.0011187782511115074,0.5559611916542053,-0.10095494985580444,-0.002306215697899461,0.01914656162261963,-0.016843892633914948,-0.00036332965828478336,0.0,1.7720460891723633,-1.3432502746582031,0.3835020959377289,18.25,0.0,1.7791986465454102,-1.5513896942138672,-0.19175104796886444,17.0,0.0,1.913309097290039,-1.5581846237182617,0.19175104796886444,15.5,0.0,1.718759536743164,-1.078963279724121,0.3835020959377289,13.75,0.0,1.5964508056640625,-0.02968311309814453,0.19175104796886444,13.25,0.0,1.636505126953125,0.10514259338378906,0.19175104796886444,17.75,0.0,1.6797780990600586,0.28896331787109375,0.3835020959377289,17.0,0.0,1.8095970153808594,-1.4383792877197266,0.0,12.75,0.0,2.023458480834961,-1.3947486877441406,0.0,16.5,,,,,,,,,,,,,,,,,,,,,,,,,,,,,,,,,,,
0.0,0.27673083543777466,1.6665749549865723,-0.0010357709834352136,0.3889744281768799,-0.11271630227565765,-0.0019344368483871222,-0.12311685085296631,-0.033262453973293304,-0.00010386842768639326,0.0,1.7298460006713867,-0.27000904083251953,0.3835020959377289,19.0,0.0,1.754164695739746,-0.2589225769042969,0.3835020959377289,21.0,0.0,1.8242597579956055,-0.058650970458984375,0.3835020959377289,14.0,,,,,,,,,,,,,,,,,,,,,,,,,,,,,,,,,,,,,,,,,,,,,,,,,,,,,,,,,,,,,,,,,
0.0,0.25339475274086,1.6707810163497925,-0.0009572880808264017,0.2877975106239319,-0.05103734880685806,-0.0016057862667366862,-0.18604397773742676,0.05830904841423035,0.00010474497685208917,0.0,1.977682113647461,-1.2792348861694336,0.3835020959377289,13.5,0.0,1.8768310546875,-0.9863376617431641,0.3835020959377289,15.25,0.0,1.7827749252319336,-0.6748437881469727,0.19175104796886444,17.75,0.0,1.8646717071533203,-0.5418062210083008,0.19175104796886444,17.25,0.0,1.6565322875976562,0.11408329010009766,0.3835020959377289,12.5,0.0,1.817464828491211,-1.3782978057861328,0.0,13.75,0.0,1.898646354675293,-1.4698505401611328,0.0,18.5,,,,,,,,,,,,,,,,,,,,,,,,,,,,,,,,,,,,,,,,,,,,,
0.0,0.17373238503932953,1.6889336109161377,-0.0008110553026199341,0.10691632330417633,0.03697291016578674,-0.001218991819769144,-0.30979230999946594,0.16606487333774567,0.00033535173861309886,0.0,1.8575191497802734,-0.9988546371459961,0.5752531439065933,12.25,0.0,1.7069578170776367,-0.27108192443847656,0.19175104796886444,18.5,0.0,1.760244369506836,0.5475282669067383,0.19175104796886444,17.5,0.0,1.809239387512207,0.573277473449707,0.3835020959377289,15.75,0.0,1.8002986907958984,-1.3926029205322266,0.0,15.25,0.0,1.891493797302246,-1.4691352844238281,0.0,18.25,0.0,1.4755725860595703,-0.08511543273925781,0.0,12.5,0.0,1.5249252319335938,-0.0743865966796875,0.0,20.0,,,,,,,,,,,,,,,,,,,,,,,,,,,,,,,,,,,,,,,,
0.0,0.17556419968605042,1.6866358518600464,-0.0006839518900960684,0.06696620583534241,0.07091671228408813,-0.0008816709741950035,-0.3136586546897888,0.2059183418750763,0.0005212288815528154,0.0,1.7684698104858398,-0.560760498046875,0.3835020959377289,13.25,0.0,1.7491579055786133,-0.41306018829345703,0.19175104796886444,17.25,0.0,1.738429069519043,-0.28967857360839844,0.19175104796886444,14.75,0.0,2.0041465759277344,-1.4584064483642578,0.0,17.25,0.0,1.5288591384887695,-0.07796287536621094,0.0,19.75,,,,,,,,,,,,,,,,,,,,,,,,,,,,,,,,,,,,,,,,,,,,,,,,,,,,,,,
0.0,0.1311112940311432,1.7063482999801636,-0.0005742796929553151,-0.039327558130025864,0.15827661752700806,-0.000593034434132278,-0.3697037696838379,0.309385746717453,0.0006649699062108994,0.0,2.0399093627929688,-1.513838768005371,0.19175104796886444,13.0,0.0,2.047419548034668,-1.305699348449707,0.19175104796886444,12.25,,,,,,,,,,,,,,,,,,,,,,,,,,,,,,,,,,,,,,,,,,,,,,,,,,,,,,,,,,,,,,,,,,,,,,
0.0,0.12200170010328293,1.7236214876174927,-0.0004752958193421364,-0.07966086268424988,0.2235168218612671,-0.0003378161636646837,-0.3693194091320038,0.37313932180404663,0.0007806519861333072,0.0,1.8292665481567383,-0.6909370422363281,0.3835020959377289,16.25,0.0,1.9243955612182617,-0.7284879684448242,0.3835020959377289,14.0,0.0,1.8106698989868164,-0.5840063095092773,0.3835020959377289,15.0,0.0,1.8178224563598633,0.6201267242431641,0.3835020959377289,13.25,0.0,2.017378807067871,-1.4805793762207031,0.0,15.75,,,,,,,,,,,,,,,,,,,,,,,,,,,,,,,,,,,,,,,,,,,,,,,,,,,,,,,
0.0,0.0419720783829689,1.7596393823623657,-0.0004103534447494894,-0.23440541326999664,0.31113260984420776,-0.00014466175343841314,-0.4687650799751282,0.4461902976036072,0.0008515764493495226,0.0,0.9033679962158203,-0.14841556549072266,0.19175104796886444,17.0,0.0,1.2202262878417969,0.2295970916748047,0.19175104796886444,23.75,0.0,1.2323856353759766,0.3154277801513672,0.19175104796886444,27.75,0.0,1.2520551681518555,0.34224987030029297,0.19175104796886444,23.75,0.0,1.269221305847168,0.3114938735961914,0.0,20.0,,,,,,,,,,,,,,,,,,,,,,,,,,,,,,,,,,,,,,,,,,,,,,,,,,,,,,,
0.0,0.04930242896080017,1.7721683979034424,-0.000341366627253592,-0.22468869388103485,0.32343828678131104,3.8495505577884614e-05,-0.4200262427330017,0.4135672450065613,0.0009133074199780822,0.0,1.1708736419677734,-0.2338886260986328,0.19175104796886444,16.5,0.0,1.201629638671875,-0.24783611297607422,0.19175104796886444,17.75,0.0,1.2345314025878906,0.22923946380615234,0.0,20.75,,,,,,,,,,,,,,,,,,,,,,,,,,,,,,,,,,,,,,,,,,,,,,,,,,,,,,,,,,,,,,,,,
0.0,-0.03490730747580528,1.807327389717102,-0.0002710320695769042,-0.3690794110298157,0.3684900104999542,0.0002062742132693529,-0.5082979798316956,0.4163186848163605,0.0009616870083846152,0.0,0.9105205535888672,-0.09548664093017578,0.3835020959377289,13.75,0.0,1.1858940124511719,-0.14090538024902344,0.3835020959377289,22.75,0.0,1.2059211730957031,-0.14662742614746094,0.3835020959377289,23.25,0.0,1.2853145599365234,-0.06759166717529297,0.3835020959377289,17.0,0.0,1.1969804763793945,-0.06401538848876953,0.0,20.5,0.0,1.2717247009277344,0.31435489654541016,0.0,20.5,,,,,,,,,,,,,,,,,,,,,,,,,,,,,,,,,,,,,,,,,,,,,,,,,,
0.0,-0.19405409693717957,1.8404401540756226,-0.00019415939459577203,-0.6206313371658325,0.37026238441467285,0.0003675237821880728,-0.678148627281189,0.3460347652435303,0.0010042802896350622,0.0,1.4083385467529297,-0.5446672439575195,0.3835020959377289,14.25,0.0,0.9126663208007812,-0.07331371307373047,0.3835020959377289,12.25,0.0,1.2187957763671875,-0.03361701965332031,0.3835020959377289,22.75,0.0,1.2803077697753906,0.1537799835205078,0.3835020959377289,25.25,0.0,1.318216323852539,0.29718875885009766,0.5752531439065933,23.25,0.0,1.399397850036621,0.2886056900024414,0.5752531439065933,14.0,0.0,1.153707504272461,-0.10371208190917969,0.0,20.25,0.0,1.2034177780151367,-0.0400543212890625,0.0,20.75,0.0,1.2756586074829102,0.3139972686767578,0.0,21.25,,,,,,,,,,,,,,,,,,,,,,,,,,,,,,,,,,,
0.0,-0.17333003878593445,1.8717225790023804,-0.00011953029752476141,-0.5368728637695312,0.377772718667984,0.0005096565000712872,-0.545642077922821,0.3064301609992981,0.0010310227517038584,0.0,1.4133453369140625,-1.109004020690918,0.19175104796886444,13.5,0.0,1.5467405319213867,-1.3575553894042969,0.19175104796886444,16.0,0.0,1.6472339630126953,-1.444101333618164,0.19175104796886444,17.75,0.0,1.7262697219848633,-1.497030258178711,0.19175104796886444,16.0,0.0,1.398324966430664,-0.36156177520751953,0.3835020959377289,22.0,0.0,1.3339519500732422,-0.23353099822998047,0.5752531439065933,28.25,0.0,1.3475418090820312,-0.28145313262939453,0.3835020959377289,29.25,0.0,1.2903213500976562,-0.1659393310546875,0.5752531439065933,19.75,0.0,1.1594295501708984,-0.10800361633300781,0.0,19.75,0.0,1.3550519943237305,0.028252601623535156,0.0,21.75,0.0,1.4462471008300781,-0.035762786865234375,0.0,15.0,0.0,1.2720823287963867,0.13446807861328125,0.0,22.25,,,,,,,,,,,,,,,,,,,,
0.0,-0.2565329372882843,1.8827052116394043,-5.5617259931750596e-05,-0.6315203905105591,0.34727755188941956,0.0006218242924660444,-0.5756648182868958,0.22788771986961365,0.0010367766954004765,0.0,1.548171043395996,-1.296401023864746,-0.3835020959377289,12.75,0.0,1.6522407531738281,-1.4215707778930664,0.3835020959377289,15.25,0.0,1.7652511596679688,-1.432657241821289,0.3835020959377289,12.75,0.0,1.520991325378418,-0.7345676422119141,0.5752531439065933,13.75,0.0,1.4001131057739258,-0.1494884490966797,0.3835020959377289,19.75,0.0,1.4684200286865234,-0.15664100646972656,0.3835020959377289,24.5,0.0,1.5009641647338867,-0.1595020294189453,0.3835020959377289,22.25,0.0,1.170516014099121,-0.1512765884399414,0.0,19.25,0.0,1.4526844024658203,-0.22280216217041016,0.0,18.25,0.0,1.2863874435424805,-0.07474422454833984,0.0,21.75,0.0,1.3818740844726562,-0.09226799011230469,0.0,22.75,,,,,,,,,,,,,,,,,,,,,,,,,
0.0,-0.41948211193084717,1.9262406826019287,3.1293056963477284e-06,-0.8387657999992371,0.331880122423172,0.0007174273487180471,-0.6922594308853149,0.15357089042663574,0.001032979809679091,0.0,1.6661882400512695,-1.3500452041625977,0.5752531439065933,13.25,0.0,1.772761344909668,-1.4466047286987305,0.19175104796886444,12.75,0.0,1.6576051712036133,-1.0918378829956055,0.5752531439065933,15.75,0.0,1.5163421630859375,-0.9562969207763672,0.5752531439065933,14.5,0.0,1.302480697631836,-0.03325939178466797,0.5752531439065933,12.0,0.0,1.3747215270996094,0.04220008850097656,0.5752531439065933,20.25,0.0,1.5145540237426758,-0.0057220458984375,0.3835020959377289,19.0,0.0,1.4405250549316406,0.12302398681640625,0.5752531439065933,22.0,0.0,1.3986825942993164,-0.1480579376220703,0.0,23.75,0.0,1.4787912368774414,-0.19884109497070312,0.0,19.5,0.0,1.2334585189819336,-0.015377998352050781,0.0,18.5,0.0,1.3103485107421875,0.0776052474975586,0.0,23.0,,,,,,,,,,,,,,,,,,,,
0.0,-0.5256528854370117,1.9370925426483154,6.190040585352108e-05,-0.9293774962425232,0.2943088710308075,0.0007979660294950008,-0.7019569873809814,0.08564110100269318,0.0010186496656388044,0.0,1.804947853088379,-1.2481212615966797,0.3835020959377289,15.0,0.0,1.9158124923706055,-1.3153553009033203,0.3835020959377289,15.75,0.0,1.738429069519043,-1.0138750076293945,0.7670041918754578,14.75,0.0,1.5778541564941406,-0.7810592651367188,0.7670041918754578,13.75,0.0,1.4727115631103516,-0.5013942718505859,0.3835020959377289,17.0,0.0,1.444101333618164,-0.3204345703125,0.3835020959377289,17.25,0.0,1.3997554779052734,-0.03254413604736328,0.3835020959377289,12.75,0.0,1.4634132385253906,0.3361701965332031,0.3835020959377289,18.25,0.0,1.478433609008789,0.5414485931396484,0.3835020959377289,19.75,0.0,1.5599727630615234,0.5632638931274414,0.3835020959377289,13.25,0.0,1.3965368270874023,-0.09942054748535156,0.0,24.75,0.0,1.2481212615966797,0.03790855407714844,0.0,18.75,0.0,1.3232231140136719,0.052928924560546875,0.0,24.0,,,,,,,,,,,,,,,
0.0,0.15923939645290375,1.1708000898361206,0.020625142380595207,0.02583726868033409,0.1899672895669937,0.0033465169835835695,0.0,0.0,0.0,0.0,2.292752265930176,-1.2685060501098633,0.3835020959377289,13.25,0.0,1.942276954650879,-0.9813308715820312,0.9587552398443222,22.25,0.0,2.0678043365478516,-1.0671615600585938,0.5752531439065933,18.25,0.0,2.204775810241699,-1.1723041534423828,0.5752531439065933,16.0,0.0,1.8739700317382812,-0.6262063980102539,0.3835020959377289,18.75,0.0,1.7205476760864258,0.16021728515625,0.5752531439065933,20.25,0.0,1.7595291137695312,0.15914440155029297,0.3835020959377289,22.75,0.0,1.807093620300293,-1.4508962631225586,0.0,16.0,0.0,1.4787912368774414,-0.044345855712890625,0.0,24.25,,,,,,,,,,,,,,,,,,,,,,,,,,,,,,,,,,,
0.0,0.15638329088687897,1.1905676126480103,0.020662393420934677,-0.028842274099588394,0.19771602749824524,0.00035769050009548664,-0.005624648183584213,0.0008232520194724202,-0.0002962197468150407,0.0,2.169013023376465,-1.2241601943969727,0.3835020959377289,19.5,0.0,1.999497413635254,-0.9337663650512695,0.19175104796886444,20.75,0.0,2.138972282409668,-1.0542869567871094,0.3835020959377289,20.0,0.0,2.3517608642578125,-1.0628700256347656,0.3835020959377289,12.75,0.0,1.8682479858398438,-0.23102760314941406,0.3835020959377289,20.5,0.0,1.7699003219604492,-0.07081031799316406,0.3835020959377289,20.25,0.0,1.7949342727661133,-0.13267993927001953,0.3835020959377289,24.5,0.0,2.008795738220215,-1.4401674270629883,0.0,14.5,0.0,1.6962289810180664,-0.07939338684082031,0.0,20.25,,,,,,,,,,,,,,,,,,,,,,,,,,,,,,,,,,,
0.0,0.12630689144134521,1.226107120513916,0.018767325207591057,-0.16711612045764923,0.2853127121925354,-0.009394161403179169,-0.02454686164855957,0.0882517546415329,-0.001050598337315023,0.0,2.182602882385254,-1.2184381484985352,0.3835020959377289,25.0,0.0,2.2029876708984375,-1.3203620910644531,0.3835020959377289,19.25,0.0,2.1997690200805664,-1.0006427764892578,0.19175104796886444,25.75,0.0,2.0914077758789062,-0.7306337356567383,0.19175104796886444,23.25,0.0,1.8357038497924805,-0.20384788513183594,0.5752531439065933,22.75,0.0,1.9093751907348633,-0.29790401458740234,0.5752531439065933,22.0,0.0,1.8020868301391602,-0.14698505401611328,0.5752531439065933,15.25,0.0,2.08890438079834,-1.1572837829589844,0.0,17.5,0.0,2.1393299102783203,-1.2685060501098633,0.0,17.0,0.0,1.4376640319824219,0.025391578674316406,0.0,16.25,,,,,,,,,,,,,,,,,,,,,,,,,,,,,,
0.0,0.09079191088676453,1.2740625143051147,0.013289978727698326,-0.23339365422725677,0.37534236907958984,-0.025087077170610428,-0.034865427762269974,0.20914632081985474,-0.00424343952909112,0.0,2.273440361022949,-1.2187957763671875,0.3835020959377289,18.5,0.0,2.3431777954101562,-1.2470483779907227,0.19175104796886444,16.75,0.0,2.2802352905273438,-0.8533000946044922,0.3835020959377289,16.0,0.0,2.0720958709716797,-0.24175643920898438,0.5752531439065933,15.5,0.0,1.897573471069336,-0.14412403106689453,0.5752531439065933,18.0,0.0,1.9279718399047852,-0.17881393432617188,0.5752531439065933,18.75,0.0,2.1843910217285156,-1.2177228927612305,0.0,19.0,0.0,2.1572113037109375,-1.0457038879394531,0.0,18.75,0.0,2.3038387298583984,-1.238107681274414,0.0,13.75,0.0,1.4519691467285156,-0.004291534423828125,0.0,13.0,0.0,1.5385150909423828,-0.0171661376953125,0.0,19.75,0.0,1.8807649612426758,-0.048279762268066406,0.0,18.25,,,,,,,,,,,,,,,,,,,,
0.0,-0.004441872239112854,1.325437068939209,0.008144617080688477,-0.43241554498672485,0.4362664520740509,-0.03259217366576195,-0.11648932099342346,0.2500811815261841,-0.006954996380954981,0.0,2.376079559326172,-1.198410987854004,0.3835020959377289,13.75,0.0,2.375006675720215,-0.7238388061523438,0.7670041918754578,17.75,0.0,2.146482467651367,-0.5793571472167969,0.5752531439065933,20.5,0.0,2.0399093627929688,-0.3769397735595703,0.5752531439065933,15.25,0.0,2.293825149536133,-0.5221366882324219,0.7670041918754578,20.5,0.0,2.2112131118774414,-1.186966896057129,0.0,18.75,0.0,2.316713333129883,-1.2280941009521484,0.0,14.75,0.0,2.2215843200683594,-0.9148120880126953,0.0,18.0,,,,,,,,,,,,,,,,,,,,,,,,,,,,,,,,,,,,,,,,
0.0,-0.0883750393986702,1.3714650869369507,0.004003092646598816,-0.5358096361160278,0.4500405192375183,-0.035245757550001144,-0.1629318743944168,0.19438950717449188,-0.008007929660379887,0.0,2.373933792114258,-1.1583566665649414,0.19175104796886444,12.25,0.0,2.3049116134643555,-0.9455680847167969,0.7670041918754578,17.75,0.0,2.2029876708984375,-0.731348991394043,0.7670041918754578,20.0,0.0,2.0949840545654297,-0.3644227981567383,0.7670041918754578,23.0,0.0,2.0313262939453125,-0.19991397857666016,0.7670041918754578,20.75,0.0,1.9919872283935547,-0.11336803436279297,0.7670041918754578,15.25,0.0,2.2312402725219727,-1.1436939239501953,0.0,19.25,0.0,2.226591110229492,-0.7867813110351562,0.0,19.0,,,,,,,,,,,,,,,,,,,,,,,,,,,,,,,,,,,,,,,,
0.0,-0.2339281588792801,1.4312971830368042,0.0005718546453863382,-0.7351763844490051,0.4645407199859619,-0.03564157336950302,-0.26756060123443604,0.0974021628499031,-0.007398608140647411,0.0,2.31778621673584,-1.440882682800293,0.9587552398443222,15.25,0.0,2.391815185546875,-1.5141963958740234,1.1505062878131866,12.75,0.0,2.189755439758301,-1.1680126190185547,0.9587552398443222,15.25,0.0,2.213001251220703,-0.4298686981201172,0.9587552398443222,21.75,0.0,2.112865447998047,0.16558170318603516,0.7670041918754578,20.0,0.0,2.156496047973633,0.09548664093017578,0.7670041918754578,25.75,0.0,2.2258758544921875,-1.1254549026489258,0.0,19.75,,,,,,,,,,,,,,,,,,,,,,,,,,,,,,,,,,,,,,,,,,,,,
0.0,-0.2785746455192566,1.49000084400177,-0.0014574879314750433,-0.6758068799972534,0.44461166858673096,-0.03252618759870529,-0.1414564698934555,-0.04451323300600052,-0.002793452702462673,0.0,2.440810203552246,-1.2438297271728516,0.7670041918754578,17.25,0.0,2.5484561920166016,-1.2542009353637695,0.7670041918754578,16.5,0.0,2.3578405380249023,-0.9058713912963867,0.9587552398443222,18.0,0.0,2.2444725036621094,-0.8139610290527344,0.9587552398443222,19.75,0.0,2.2133588790893555,-0.5933046340942383,0.5752531439065933,16.5,0.0,2.09963321685791,0.7867813110351562,0.5752531439065933,13.0,,,,,,,,,,,,,,,,,,,,,,,,,,,,,,,,,,,,,,,,,,,,,,,,,,
0.0,-0.3521067798137665,1.546860694885254,-0.0030177789740264416,-0.6709743738174438,0.40851446986198425,-0.02859261818230152,-0.0746038481593132,-0.17354151606559753,0.002414998598396778,0.0,2.5244951248168945,-0.960230827331543,0.3835020959377289,16.75,0.0,2.672910690307617,-1.0077953338623047,0.3835020959377289,14.75,0.0,2.395749092102051,-0.7385015487670898,0.3835020959377289,19.5,0.0,2.166867256164551,0.02181529998779297,0.3835020959377289,17.5,0.0,2.2101402282714844,0.016450881958007812,0.5752531439065933,25.75,0.0,2.269148826599121,-0.0654458999633789,0.5752531439065933,23.0,0.0,2.567768096923828,-1.1554956436157227,0.0,13.0,,,,,,,,,,,,,,,,,,,,,,,,,,,,,,,,,,,,,,,,,,,,,
0.0,-0.37308239936828613,1.5998154878616333,-0.0041102636605501175,-0.5681741237640381,0.39939963817596436,-0.024421624839305878,0.06015435606241226,-0.19297736883163452,0.006823491305112839,0.0,2.53450870513916,-1.0349750518798828,0.7670041918754578,16.0,0.0,2.616763114929199,-1.180887222290039,0.3835020959377289,13.75,0.0,2.3986101150512695,-0.4863739013671875,0.7670041918754578,16.25,0.0,2.2058486938476562,-0.1627206802368164,0.5752531439065933,12.5,0.0,2.2541284561157227,-0.15628337860107422,0.5752531439065933,24.25,0.0,2.2788047790527344,-0.16987323760986328,0.5752531439065933,23.25,0.0,2.572774887084961,-1.1472702026367188,0.0,13.75,0.0,2.269864082336426,-0.4667043685913086,0.0,25.25,0.0,2.1647214889526367,-0.08082389831542969,0.0,29.25,,,,,,,,,,,,,,,,,,,,,,,,,,,,,,,,,,,
0.0,-0.4125911593437195,1.6417560577392578,-0.004711270332336426,-0.5057308673858643,0.3576471507549286,-0.019471582025289536,0.14354313910007477,-0.2544717788696289,0.0117570199072361,0.0,2.705097198486328,-1.165151596069336,0.3835020959377289,16.75,0.0,2.72977352142334,-1.221299171447754,0.3835020959377289,14.5,0.0,2.595663070678711,-0.962376594543457,0.3835020959377289,13.5,0.0,2.399325370788574,-0.5646944046020508,0.5752531439065933,16.0,0.0,2.298116683959961,-0.45096874237060547,0.5752531439065933,21.0,0.0,2.275228500366211,-0.3000497817993164,0.5752531439065933,19.0,0.0,2.453327178955078,-1.1504888534545898,0.0,17.75,0.0,2.621769905090332,-1.1290311813354492,0.0,15.5,0.0,2.261996269226074,-0.3050565719604492,0.0,26.0,0.0,2.1643638610839844,-0.07653236389160156,0.0,29.25,,,,,,,,,,,,,,,,,,,,,,,,,,,,,,
0.0,-0.46594732999801636,1.6958503723144531,-0.004636548459529877,-0.5042246580123901,0.3664920926094055,-0.01474497839808464,0.1237153559923172,-0.21750357747077942,0.014974064193665981,0.0,2.595663070678711,-0.80108642578125,0.3835020959377289,14.5,0.0,2.748727798461914,-0.9534358978271484,0.5752531439065933,13.5,0.0,2.481222152709961,-0.2821683883666992,0.3835020959377289,16.75,0.0,2.3431777954101562,-0.08225440979003906,0.5752531439065933,12.5,0.0,2.4139881134033203,-0.1455545425415039,0.5752531439065933,18.75,0.0,2.452254295349121,0.3669261932373047,0.3835020959377289,17.25,0.0,2.662181854248047,-1.1186599731445312,0.0,16.0,0.0,2.385735511779785,-0.6490945816040039,0.0,19.0,0.0,2.262711524963379,-0.2567768096923828,0.0,25.5,0.0,2.077460289001465,-0.12874603271484375,0.0,20.5,0.0,2.1604299545288086,-0.09226799011230469,0.0,29.0,,,,,,,,,,,,,,,,,,,,,,,,,
0.0,-0.5153019428253174,1.7645589113235474,-0.004037094302475452,-0.4961073398590088,0.39526891708374023,-0.009720288217067719,0.11323922127485275,-0.16963347792625427,0.018082216382026672,0.0,2.5058984756469727,-1.07574462890625,0.7670041918754578,17.25,0.0,2.761960029602051,-0.9427070617675781,0.3835020959377289,17.0,0.0,2.8839111328125,-0.9570121765136719,0.5752531439065933,15.0,0.0,2.4290084838867188,-0.08976459503173828,0.7670041918754578,25.5,0.0,2.3921728134155273,-0.04792213439941406,0.5752531439065933,18.25,0.0,2.4379491806030273,-0.057220458984375,0.7670041918754578,23.75,0.0,2.2798776626586914,-0.25641918182373047,0.0,26.5,0.0,2.0956993103027344,-0.07939338684082031,0.0,19.5,0.0,2.181529998779297,-0.08869171142578125,0.0,29.0,,,,,,,,,,,,,,,,,,,,,,,,,,,,,,,,,,,
0.0,-0.5494989156723022,1.8192113637924194,-0.0034929709509015083,-0.4312971234321594,0.36821338534355164,-0.004892275668680668,0.1852037012577057,-0.2198493331670761,0.02105235494673252,0.0,2.80916690826416,-1.1129379272460938,0.5752531439065933,14.25,0.0,2.719759941101074,-0.9005069732666016,0.7670041918754578,17.75,0.0,2.6618242263793945,-0.5557537078857422,0.5752531439065933,19.5,0.0,2.602100372314453,-0.26106834411621094,0.5752531439065933,19.0,0.0,2.4973154067993164,-0.020742416381835938,0.5752531439065933,15.0,0.0,2.4329423904418945,-0.4506111145019531,0.0,22.5,0.0,2.312779426574707,-0.23353099822998047,0.0,26.75,0.0,2.22623348236084,-0.05435943603515625,0.0,28.0,0.0,2.147197723388672,0.07867813110351562,0.0,17.0,,,,,,,,,,,,,,,,,,,,,,,,,,,,,,,,,,,
0.0,-0.5993633270263672,1.872441291809082,-0.00259724585339427,-0.416238397359848,0.34778231382369995,-0.00041092769242823124,0.19016540050506592,-0.24268582463264465,0.023148586973547935,0.0,2.8821229934692383,-0.8972883224487305,1.1505062878131866,16.0,0.0,2.783060073852539,-0.7921457290649414,1.1505062878131866,18.75,0.0,2.582430839538574,-0.4438161849975586,0.3835020959377289,18.75,0.0,2.6754140853881836,-0.5954504013061523,0.3835020959377289,18.5,0.0,2.5080442428588867,-0.4012584686279297,0.3835020959377289,13.25,0.0,2.458333969116211,-0.3848075866699219,0.0,23.25,0.0,2.3288726806640625,-0.20384788513183594,0.0,26.25,0.0,2.24912166595459,-0.059723854064941406,0.0,27.25,,,,,,,,,,,,,,,,,,,,,,,,,,,,,,,,,,,,,,,,
0.0,-0.6196218729019165,1.9353514909744263,-0.0016358206048607826,-0.35768914222717285,0.36203667521476746,0.0032563565764576197,0.22596335411071777,-0.21267393231391907,0.024167293682694435,0.0,3.0312538146972656,-0.9312629699707031,0.3835020959377289,14.25,0.0,2.9665231704711914,-0.8776187896728516,1.1505062878131866,18.25,0.0,2.8810501098632812,-0.5897283554077148,1.1505062878131866,16.25,0.0,2.8792619705200195,-0.9377002716064453,0.0,17.5,0.0,2.4765729904174805,-0.2771615982055664,0.0,23.25,0.0,2.3310184478759766,-0.17309188842773438,0.0,26.0,0.0,2.2426843643188477,-0.0514984130859375,0.0,27.25,,,,,,,,,,,,,,,,,,,,,,,,,,,,,,,,,,,,,,,,,,,,,
0.0,-0.6451582312583923,2.0064778327941895,-0.00032262818422168493,-0.3307548761367798,0.40950268507003784,0.006893929559737444,0.21677899360656738,-0.12809482216835022,0.02501887083053589,0.0,2.947568893432617,-1.1211633682250977,0.0,12.75,0.0,2.879977226257324,-0.9502172470092773,0.0,17.5,0.0,2.489447593688965,-0.26929378509521484,0.0,22.5,,,,,,,,,,,,,,,,,,,,,,,,,,,,,,,,,,,,,,,,,,,,,,,,,,,,,,,,,,,,,,,,,
0.0,-0.6400391459465027,2.0856783390045166,0.0009884084574878216,-0.26071345806121826,0.48715782165527344,0.010052432306110859,0.24007119238376617,-0.009497672319412231,0.025451404973864555,0.0,2.8831958770751953,-0.9548664093017578,0.0,17.5,0.0,2.957940101623535,-1.0939836502075195,0.0,12.25,0.0,2.398967742919922,-0.24640560150146484,0.0,23.5,0.0,2.509474754333496,-0.2703666687011719,0.0,22.5,,,,,,,,,,,,,,,,,,,,,,,,,,,,,,,,,,,,,,,,,,,,,,,,,,,,,,,,,,,,
0.0,-0.6246199607849121,2.189481258392334,0.0025987490080296993,-0.18961162865161896,0.6170355081558228,0.013285025022923946,0.2533878684043884,0.16678042709827423,0.025928111746907234,0.0,2.9522180557250977,-1.132965087890625,0.0,12.75,0.0,2.9042959213256836,-0.9276866912841797,0.0,17.5,0.0,2.680063247680664,-0.46062469482421875,0.0,19.25,0.0,2.5244951248168945,-0.2671480178833008,0.0,22.25,0.0,2.376437187194824,-0.11515617370605469,0.0,15.25,,,,,,,,,,,,,,,,,,,,,,,,,,,,,,,,,,,,,,,,,,,,,,,,,,,,,,,
0.0,-0.6883264183998108,2.2652313709259033,0.0037869089283049107,-0.24515381455421448,0.6610783934593201,0.01549155730754137,0.18034088611602783,0.21199838817119598,0.025669027119874954,0.0,2.9125213623046875,-0.9244680404663086,0.0,17.5,0.0,2.9772520065307617,-1.0771751403808594,0.0,13.0,,,,,,,,,,,,,,,,,,,,,,,,,,,,,,,,,,,,,,,,,,,,,,,,,,,,,,,,,,,,,,,,,,,,,,
0.0,-0.6233002543449402,2.338223457336426,0.0033569210208952427,-0.07321137189865112,0.6591557860374451,0.014596093446016312,0.3181110620498657,0.14118225872516632,0.023228542879223824,0.0,3.5344362258911133,0.10657310485839844,-0.5752531439065933,17.25,0.0,3.6438703536987305,-0.04649162292480469,-0.9587552398443222,18.25,0.0,3.747224807739258,-0.02110004425048828,-0.9587552398443222,16.0,0.0,3.441452980041504,0.17702579498291016,-0.5752531439065933,13.0,0.0,3.5845041275024414,0.09763240814208984,0.0,14.25,0.0,3.7457942962646484,0.02002716064453125,0.0,18.75,0.0,3.8698911666870117,0.14483928680419922,0.0,22.0,,,,,,,,,,,,,,,,,,,,,,,,,,,,,,,,,,,,,,,,,,,,,
0.0,-0.5891968011856079,2.407886028289795,0.0036149919033050537,0.02180967852473259,0.6729183197021484,0.014987397938966751,0.3695109486579895,0.12947557866573334,0.021969778463244438,0.0,3.697514533996582,-0.7413625717163086,-0.3835020959377289,13.5,0.0,3.5616159439086914,-0.15556812286376953,-0.7670041918754578,18.0,0.0,3.4418106079101562,0.05328655242919922,-0.5752531439065933,17.0,0.0,3.48508358001709,-0.06866455078125,-0.7670041918754578,21.0,0.0,3.438591957092285,0.04112720489501953,0.0,14.0,0.0,3.5344362258911133,-0.051140785217285156,0.0,17.25,0.0,3.7146806716918945,0.040411949157714844,0.0,19.0,0.0,3.864884376525879,0.1004934310913086,0.0,21.75,,,,,,,,,,,,,,,,,,,,,,,,,,,,,,,,,,,,,,,,
0.0,-0.6205035448074341,2.459707736968994,0.0038124420680105686,0.008698586374521255,0.6351622343063354,0.015157495625317097,0.33927083015441895,0.055814750492572784,0.020683100447058678,0.0,3.50189208984375,-0.2238750457763672,-0.5752531439065933,14.25,0.0,3.402113914489746,0.10263919830322266,-0.5752531439065933,21.0,0.0,3.31270694732666,0.1323223114013672,-0.5752531439065933,13.0,0.0,3.37064266204834,0.18167495727539062,-0.5752531439065933,21.25,0.0,3.5015344619750977,0.016808509826660156,0.0,18.5,0.0,3.6946535110473633,-0.022172927856445312,0.0,18.75,0.0,3.8591623306274414,0.0972747802734375,0.0,21.5,,,,,,,,,,,,,,,,,,,,,,,,,,,,,,,,,,,,,,,,,,,,,
0.0,-0.5791544318199158,2.523306369781494,0.00421950314193964,0.10269756615161896,0.6260400414466858,0.015534354373812675,0.389546275138855,0.021131474524736404,0.019648056477308273,0.0,3.5151243209838867,-0.23853778839111328,-0.7670041918754578,12.25,0.0,3.382086753845215,-0.08761882781982422,-0.9587552398443222,17.75,0.0,3.415703773498535,-0.10478496551513672,-0.9587552398443222,18.25,0.0,3.473997116088867,-0.009655952453613281,0.0,19.75,0.0,3.6499500274658203,-0.07474422454833984,0.0,18.75,,,,,,,,,,,,,,,,,,,,,,,,,,,,,,,,,,,,,,,,,,,,,,,,,,,,,,,
0.0,-0.5319303274154663,2.5971505641937256,0.0045728362165391445,0.19159629940986633,0.6554960012435913,0.015899265184998512,0.4235009253025055,0.0561748668551445,0.01874960958957672,0.0,3.337383270263672,-0.2338886260986328,-0.9587552398443222,19.0,0.0,3.239750862121582,0.09512901306152344,-0.9587552398443222,19.75,0.0,3.281235694885254,0.003933906555175781,-0.9587552398443222,22.75,0.0,3.623485565185547,-0.1283884048461914,0.0,17.75,0.0,3.368496894836426,0.10478496551513672,0.0,19.75,0.0,3.452181816101074,-0.00035762786865234375,0.0,20.0,,,,,,,,,,,,,,,,,,,,,,,,,,,,,,,,,,,,,,,,,,,,,,,,,,
0.0,-0.515540599822998,2.6649436950683594,0.005042725242674351,0.22685706615447998,0.6642281413078308,0.016311155632138252,0.41792893409729004,0.06028665229678154,0.017946777865290642,0.0,3.4679174423217773,-1.1508464813232422,-0.7670041918754578,13.0,0.0,3.226161003112793,-0.08547306060791016,-0.7670041918754578,20.0,0.0,3.239750862121582,-0.08976459503173828,-0.7670041918754578,22.0,0.0,3.3223628997802734,0.0035762786865234375,-0.7670041918754578,14.75,0.0,3.589153289794922,-0.2961158752441406,0.0,17.0,0.0,3.4203529357910156,0.03790855407714844,0.0,20.5,,,,,,,,,,,,,,,,,,,,,,,,,,,,,,,,,,,,,,,,,,,,,,,,,,
0.0,-0.5149582028388977,2.731889009475708,0.005557322409003973,0.2344278246164322,0.6840044856071472,0.016769930720329285,0.390617698431015,0.08936884254217148,0.01725807599723339,0.0,3.313779830932617,-0.3476142883300781,-0.3835020959377289,14.0,0.0,3.197193145751953,-0.1266002655029297,-0.3835020959377289,22.25,0.0,3.0966997146606445,0.06330013275146484,-0.7670041918754578,17.75,0.0,3.1599998474121094,-0.042557716369628906,-0.7670041918754578,23.5,0.0,3.5827159881591797,-0.33152103424072266,0.0,17.0,0.0,3.4128427505493164,0.012516975402832031,0.0,20.75,,,,,,,,,,,,,,,,,,,,,,,,,,,,,,,,,,,,,,,,,,,,,,,,,,
0.0,-0.5174919962882996,2.822615146636963,0.00645884033292532,0.23414501547813416,0.7455663681030273,0.017633283510804176,0.35666796565055847,0.1663707196712494,0.016852831467986107,0.0,3.3942461013793945,-1.2023448944091797,-0.5752531439065933,14.0,0.0,3.2733678817749023,-0.948786735534668,-0.3835020959377289,15.25,0.0,3.107428550720215,-0.1233816146850586,-0.3835020959377289,24.5,0.0,3.0584335327148438,-0.0858306884765625,-0.7670041918754578,21.25,0.0,3.173232078552246,-0.07939338684082031,-0.3835020959377289,21.25,0.0,3.5573244094848633,-0.4527568817138672,0.0,15.0,0.0,3.3745765686035156,0.01609325408935547,0.0,20.75,,,,,,,,,,,,,,,,,,,,,,,,,,,,,,,,,,,,,,,,,,,,,
0.0,-0.49229416251182556,2.898003578186035,0.008306432515382767,0.13490590453147888,0.38110172748565674,0.009659282863140106,0.0,0.0,0.0,0.0,3.269076347351074,-1.0557174682617188,-0.5752531439065933,13.5,0.0,3.1810998916625977,-0.7123947143554688,-0.3835020959377289,13.0,0.0,2.9042959213256836,0.046133995056152344,-0.7670041918754578,17.25,0.0,2.920389175415039,0.06330013275146484,-0.7670041918754578,21.5,0.0,2.9897689819335938,0.04112720489501953,-0.7670041918754578,16.5,0.0,3.448963165283203,-0.9444952011108398,0.0,12.75,,,,,,,,,,,,,,,,,,,,,,,,,,,,,,,,,,,,,,,,,,,,,,,,,,
0.0,-0.4788035750389099,2.9361138343811035,0.009272361174225807,0.0,0.0,0.0,0.0,0.0,0.0,0.0,3.2873153686523438,-0.9484291076660156,-0.5752531439065933,12.5,0.0,3.154277801513672,-0.5900859832763672,-0.5752531439065933,16.25,0.0,2.926468849182129,0.04971027374267578,-0.7670041918754578,25.0,0.0,3.003716468811035,-0.054717063903808594,-0.7670041918754578,21.5,0.0,2.879977226257324,0.12803077697753906,-0.7670041918754578,21.75,0.0,3.3409595489501953,-0.09334087371826172,0.0,17.75,,,,,,,,,,,,,,,,,,,,,,,,,,,,,,,,,,,,,,,,,,,,,,,,,,
0.0,-0.4788035750389099,2.9361138343811035,0.009272361174225807,0.0,0.0,0.0,0.0,0.0,0.0,0.0,3.211498260498047,-0.39446353912353516,-0.7670041918754578,13.75,0.0,2.742648124694824,-0.10120868682861328,-0.7670041918754578,14.75,0.0,2.801656723022461,-0.061511993408203125,-0.7670041918754578,21.75,0.0,2.8753280639648438,-0.06258487701416016,-0.7670041918754578,20.5,0.0,3.0323266983032227,0.06759166717529297,-0.7670041918754578,17.5,0.0,3.3524036407470703,-1.3132095336914062,0.0,13.0,0.0,3.346681594848633,-0.31256675720214844,0.0,15.5,,,,,,,,,,,,,,,,,,,,,,,,,,,,,,,,,,,,,,,,,,,,,
0.0,-0.4788035750389099,2.9361138343811035,0.009272361174225807,0.0,0.0,0.0,0.0,0.0,0.0,0.0,3.1206607818603516,-1.0721683502197266,-0.7670041918754578,13.25,0.0,3.229379653930664,-1.1336803436279297,-0.5752531439065933,12.25,0.0,2.8427839279174805,-0.42557716369628906,-0.5752531439065933,14.25,0.0,3.052353858947754,-0.46312808990478516,-1.1505062878131866,13.75,0.0,2.6886463165283203,0.06830692291259766,-0.7670041918754578,18.25,0.0,2.639293670654297,0.21278858184814453,-0.7670041918754578,18.5,0.0,3.348112106323242,-1.3167858123779297,0.0,13.75,0.0,3.3016204833984375,-0.7138252258300781,0.0,14.5,,,,,,,,,,,,,,,,,,,,,,,,,,,,,,,,,,,,,,,,
0.0,0.056731440126895905,3.5922963619232178,0.0627124086022377,-0.012109419330954552,-0.7667816281318665,-0.013386067003011703,0.0,0.0,0.0,0.0,2.4890899658203125,-1.2177228927612305,-0.19175104796886444,16.25,0.0,2.6149749755859375,-1.1529922485351562,-0.9587552398443222,14.25,0.0,2.3102760314941406,-0.08440017700195312,-0.3835020959377289,24.75,0.0,2.4050474166870117,-0.1634359359741211,-0.3835020959377289,18.25,0.0,2.1997690200805664,0.20456314086914062,-0.7670041918754578,25.0,0.0,2.123236656188965,0.20813941955566406,-0.7670041918754578,17.5,,,,,,,,,,,,,,,,,,,,,,,,,,,,,,,,,,,,,,,,,,,,,,,,,,
0.0,0.050379641354084015,3.520735263824463,0.06011058762669563,-0.06376457214355469,-0.7141187191009521,-0.02606053277850151,-0.004931374918669462,0.029828617349267006,-0.0008471126784570515,0.0,2.490520477294922,-1.2520551681518555,-0.5752531439065933,18.0,0.0,2.544879913330078,-1.3010501861572266,-0.5752531439065933,17.25,0.0,2.3932456970214844,-0.4470348358154297,-0.19175104796886444,17.0,0.0,2.2559165954589844,-0.3261566162109375,-0.3835020959377289,25.25,0.0,2.221226692199707,-0.13911724090576172,-0.7670041918754578,26.75,0.0,2.143979072570801,0.15807151794433594,-0.7670041918754578,15.75,,,,,,,,,,,,,,,,,,,,,,,,,,,,,,,,,,,,,,,,,,,,,,,,,,
0.0,0.0460449680685997,3.45682430267334,0.05264682695269585,-0.0536409430205822,-0.6684131622314453,-0.05081208795309067,-0.0020758849568665028,0.08983879536390305,-0.004842299968004227,0.0,2.4633407592773438,-1.2595653533935547,-1.9175104796886444,18.75,0.0,2.5502443313598633,-1.1744499206542969,-1.9175104796886444,16.0,0.0,2.3546218872070312,-0.9566545486450195,-1.9175104796886444,15.25,0.0,2.193331718444824,-0.30612945556640625,-0.19175104796886444,23.5,0.0,2.110004425048828,-0.11229515075683594,-0.7670041918754578,30.0,0.0,2.0585060119628906,0.05364418029785156,-0.7670041918754578,25.5,0.0,2.0055770874023438,0.1480579376220703,-0.7670041918754578,18.0,,,,,,,,,,,,,,,,,,,,,,,,,,,,,,,,,,,,,,,,,,,,,
0.0,0.01817495934665203,3.377718448638916,0.04138980060815811,-0.1325918734073639,-0.7191620469093323,-0.07293462008237839,-0.027240319177508354,-0.02724749594926834,-0.01239807903766632,0.0,1.947641372680664,-0.2542734146118164,-0.9587552398443222,21.5,0.0,1.9884109497070312,-0.2943277359008789,-1.1505062878131866,24.25,0.0,2.0613670349121094,-0.30791759490966797,-0.5752531439065933,27.5,0.0,2.191901206970215,-0.2878904342651367,-0.5752531439065933,20.0,0.0,2.555251121520996,-0.6898641586303711,0.0,17.25,,,,,,,,,,,,,,,,,,,,,,,,,,,,,,,,,,,,,,,,,,,,,,,,,,,,,,,
0.0,-0.0025876350700855255,3.290149450302124,0.027624085545539856,-0.15538355708122253,-0.7863671779632568,-0.09173332154750824,-0.03553808853030205,-0.15799078345298767,-0.020068127661943436,0.0,2.294182777404785,-1.1086463928222656,-0.3835020959377289,13.75,0.0,2.4454593658447266,-1.07574462890625,-0.3835020959377289,12.25,0.0,2.167940139770508,-0.7352828979492188,-0.3835020959377289,16.5,0.0,2.0227432250976562,-0.4709959030151367,-0.3835020959377289,23.5,0.0,1.911163330078125,-0.11801719665527344,-0.7670041918754578,24.0,0.0,1.8349885940551758,0.0057220458984375,-0.7670041918754578,19.0,0.0,1.8600225448608398,-0.008940696716308594,-0.7670041918754578,26.0,0.0,2.5452375411987305,-0.8336305618286133,0.0,16.75,,,,,,,,,,,,,,,,,,,,,,,,,,,,,,,,,,,,,,,,
0.0,-0.030731692910194397,3.21478009223938,0.013289275579154491,-0.18735048174858093,-0.7889738082885742,-0.10518521815538406,-0.049873583018779755,-0.13721083104610443,-0.025361904874444008,0.0,2.063155174255371,-0.8815526962280273,-0.7670041918754578,13.75,0.0,1.958012580871582,-0.6061792373657227,-0.7670041918754578,23.25,0.0,1.9158124923706055,-0.3726482391357422,-0.7670041918754578,21.75,0.0,1.885056495666504,-0.1888275146484375,-0.7670041918754578,20.25,0.0,1.821756362915039,-0.015735626220703125,-0.7670041918754578,13.25,0.0,2.4286508560180664,0.05900859832763672,0.0,14.5,,,,,,,,,,,,,,,,,,,,,,,,,,,,,,,,,,,,,,,,,,,,,,,,,,
0.0,-0.06864511221647263,3.1572439670562744,0.00042519043199718,-0.2315922975540161,-0.7243143320083618,-0.11226265132427216,-0.07586496323347092,0.006385594606399536,-0.02817455865442753,0.0,2.1404027938842773,-1.416921615600586,-0.3835020959377289,13.5,0.0,1.9093751907348633,-0.6930828094482422,-0.9587552398443222,17.5,0.0,1.8138885498046875,-0.2657175064086914,-0.7670041918754578,21.5,0.0,1.7359256744384766,-0.07367134094238281,-0.7670041918754578,26.0,0.0,1.7534494400024414,-0.12731552124023438,-0.7670041918754578,27.25,0.0,1.6847848892211914,-0.034332275390625,-0.7670041918754578,16.25,,,,,,,,,,,,,,,,,,,,,,,,,,,,,,,,,,,,,,,,,,,,,,,,,,
0.0,-0.20571233332157135,3.1141998767852783,-0.007646828889846802,-0.45724785327911377,-0.6352056264877319,-0.10936141014099121,-0.237797349691391,0.1457928866147995,-0.02528323605656624,0.0,2.008795738220215,-1.3353824615478516,-0.3835020959377289,15.25,0.0,2.130746841430664,-1.3146400451660156,-0.5752531439065933,15.5,0.0,1.921534538269043,-0.8586645126342773,-0.5752531439065933,15.25,0.0,1.775979995727539,-0.5789995193481445,-0.5752531439065933,18.5,0.0,1.7105340957641602,-0.40340423583984375,-0.5752531439065933,23.0,0.0,1.6779899597167969,-0.2893209457397461,-0.5752531439065933,22.5,0.0,1.636505126953125,-0.22494792938232422,-0.7670041918754578,16.0,0.0,2.2176504135131836,-0.34797191619873047,0.0,16.75,,,,,,,,,,,,,,,,,,,,,,,,,,,,,,,,,,,,,,,,
0.0,-0.24005413055419922,3.044206142425537,-0.011249941773712635,-0.45413723587989807,-0.6497436165809631,-0.0978875383734703,-0.2091270387172699,0.09165360033512115,-0.013572651892900467,0.0,1.9916296005249023,-1.3303756713867188,-0.3835020959377289,17.0,0.0,2.0155906677246094,-1.4083385467529297,-0.3835020959377289,15.25,0.0,1.7920732498168945,-0.5414485931396484,-1.342257335782051,18.5,0.0,1.5170574188232422,0.025033950805664062,-0.5752531439065933,17.75,0.0,1.567840576171875,0.03826618194580078,-0.5752531439065933,28.5,0.0,1.6533136367797852,-0.035762786865234375,-0.5752531439065933,23.5,0.0,1.576066017150879,0.057220458984375,-0.5752531439065933,30.0,0.0,2.2312402725219727,-1.1898279190063477,0.0,14.25,0.0,2.208709716796875,-0.5099773406982422,0.0,16.0,,,,,,,,,,,,,,,,,,,,,,,,,,,,,,,,,,,
0.0,-0.24080747365951538,2.978105306625366,-0.013097967021167278,-0.38233107328414917,-0.6614574193954468,-0.08381761610507965,-0.11342081427574158,0.04374247044324875,0.0009613055735826492,0.0,1.843571662902832,-1.2896060943603516,-0.3835020959377289,20.5,0.0,1.9462108612060547,-1.325368881225586,-0.3835020959377289,21.5,0.0,2.007722854614258,-1.365065574645996,-0.3835020959377289,18.0,0.0,1.7652511596679688,-0.7477998733520508,-1.1505062878131866,15.75,0.0,1.568913459777832,-0.4849433898925781,-0.5752531439065933,12.25,0.0,1.6518831253051758,-0.37729740142822266,-1.1505062878131866,22.5,0.0,1.679062843322754,-0.40662288665771484,-1.1505062878131866,23.0,0.0,1.5410184860229492,0.36656856536865234,-0.5752531439065933,15.5,0.0,2.342820167541504,-1.2971162796020508,0.0,13.5,0.0,2.175450325012207,-0.6676912307739258,0.0,15.75,0.0,2.0688772201538086,-0.3336668014526367,0.0,22.75,,,,,,,,,,,,,,,,,,,,,,,,,
0.0,-0.20830202102661133,2.90757417678833,-0.013538535684347153,-0.2455035299062729,-0.6824341416358948,-0.06779071688652039,0.04522541165351868,-0.005509622395038605,0.016986103728413582,0.0,1.4966726303100586,-1.2302398681640625,-1.72575943171978,14.75,0.0,1.6640424728393555,-1.3886690139770508,-0.3835020959377289,16.0,0.0,1.7784833908081055,-1.4265775680541992,-0.3835020959377289,13.5,0.0,1.484513282775879,-0.596165657043457,-0.5752531439065933,27.25,0.0,1.5410184860229492,-0.6262063980102539,-0.3835020959377289,21.75,0.0,1.4119148254394531,-0.3465414047241211,-0.5752531439065933,18.25,0.0,1.4837980270385742,-0.35262107849121094,-0.5752531439065933,24.75,0.0,2.041339874267578,-0.4298686981201172,0.0,18.0,0.0,1.9243955612182617,-0.22351741790771484,0.0,22.5,,,,,,,,,,,,,,,,,,,,,,,,,,,,,,,,,,,
0.0,-0.26943403482437134,2.837542772293091,-0.011792543344199657,-0.3121737837791443,-0.7169555425643921,-0.04844701290130615,-0.025129318237304688,-0.07478037476539612,0.03516564518213272,0.0,1.5238523483276367,-1.3382434844970703,-0.3835020959377289,12.5,0.0,1.6275644302368164,-1.427292823791504,-0.5752531439065933,12.75,0.0,1.4154911041259766,-0.1494884490966797,-0.7670041918754578,27.0,0.0,1.4673471450805664,-0.2346038818359375,-0.7670041918754578,22.0,0.0,1.3207197189331055,-0.07724761962890625,-0.7670041918754578,15.25,0.0,1.3829469680786133,-0.10228157043457031,-0.7670041918754578,25.25,0.0,1.9959211349487305,-1.2220144271850586,0.0,17.0,0.0,2.12860107421875,-1.271367073059082,0.0,15.5,0.0,1.8939971923828125,-0.30112266540527344,0.0,21.0,,,,,,,,,,,,,,,,,,,,,,,,,,,,,,,,,,,
0.0,-0.23158225417137146,2.7475852966308594,-0.010740995407104492,-0.15257695317268372,-0.78956139087677,-0.03173156827688217,0.1581164002418518,-0.18160739541053772,0.049270208925008774,0.0,1.3042688369750977,-0.6247758865356445,-0.7670041918754578,21.75,0.0,1.3915300369262695,-0.5797147750854492,-0.7670041918754578,17.25,0.0,1.2513399124145508,0.010728836059570312,-0.7670041918754578,15.5,0.0,1.278519630432129,0.031828880310058594,-0.7670041918754578,19.25,0.0,2.12252140045166,-1.2974739074707031,0.0,15.75,,,,,,,,,,,,,,,,,,,,,,,,,,,,,,,,,,,,,,,,,,,,,,,,,,,,,,,
0.0,-0.24393042922019958,2.688162326812744,-0.008653705008327961,-0.14110977947711945,-0.7344894409179688,-0.01752346381545067,0.14659243822097778,-0.06684702634811401,0.05764107406139374,0.0,1.4058351516723633,-0.24247169494628906,-0.3835020959377289,24.25,0.0,1.463770866394043,-0.3072023391723633,-0.3835020959377289,21.0,0.0,1.2263059616088867,-0.11980533599853516,-0.7670041918754578,19.25,0.0,1.3200044631958008,-0.102996826171875,-0.7670041918754578,23.25,0.0,2.1010637283325195,-1.3092756271362305,0.0,15.75,,,,,,,,,,,,,,,,,,,,,,,,,,,,,,,,,,,,,,,,,,,,,,,,,,,,,,,
0.0,-0.24323596060276031,2.6127777099609375,-0.005989642348140478,-0.09595073759555817,-0.7427314519882202,-0.0030347732827067375,0.17756175994873047,-0.06833082437515259,0.06593167781829834,0.0,1.2917518615722656,-0.7488727569580078,-0.5752531439065933,13.5,0.0,1.2159347534179688,-0.5772113800048828,-0.5752531439065933,20.0,0.0,1.1658668518066406,-0.504612922668457,-0.7670041918754578,21.0,0.0,1.132965087890625,-0.37157535552978516,-0.7670041918754578,17.75,0.0,1.1240243911743164,0.3218650817871094,-0.7670041918754578,24.25,0.0,1.203775405883789,0.3132820129394531,-0.7670041918754578,15.5,0.0,0.8683204650878906,0.2903938293457031,-0.7670041918754578,19.0,0.0,1.1082887649536133,0.33545494079589844,-0.7670041918754578,26.0,,,,,,,,,,,,,,,,,,,,,,,,,,,,,,,,,,,,,,,,
0.0,-0.24451890587806702,2.529237985610962,-0.0039626481011509895,-0.059349026530981064,-0.7774677276611328,0.008010588586330414,0.19841976463794708,-0.11071023344993591,0.07011549174785614,0.0,1.5957355499267578,-1.3647079467773438,-0.3835020959377289,14.75,0.0,1.1826753616333008,-0.48923492431640625,-0.3835020959377289,14.25,0.0,1.120448112487793,-0.3204345703125,-0.5752531439065933,21.5,0.0,0.914454460144043,-0.042557716369628906,-0.5752531439065933,21.75,0.0,1.0542869567871094,-0.026106834411621094,-0.5752531439065933,23.25,0.0,1.604318618774414,-1.2052059173583984,0.0,15.5,,,,,,,,,,,,,,,,,,,,,,,,,,,,,,,,,,,,,,,,,,,,,,,,,,
0.0,-0.18703337013721466,2.4603469371795654,-0.0018526450730860233,0.0871395617723465,-0.7585965991020203,0.0168615709990263,0.31599465012550354,-0.06965989619493484,0.07167839258909225,0.0,1.0510683059692383,-0.3046989440917969,-0.5752531439065933,17.0,0.0,0.9033679962158203,-0.148773193359375,-0.5752531439065933,24.25,0.0,0.9977817535400391,-0.17523765563964844,-0.5752531439065933,24.0,0.0,1.581430435180664,-1.2638568878173828,0.0,16.0,0.0,1.5817880630493164,-0.584721565246582,0.0,12.75,,,,,,,,,,,,,,,,,,,,,,,,,,,,,,,,,,,,,,,,,,,,,,,,,,,,,,,
0.0,-0.13901832699775696,2.378601551055908,-0.00011681526666507125,0.19533143937587738,-0.7919201254844666,0.023469625040888786,0.38717347383499146,-0.11560932546854019,0.07122962176799774,0.0,0.9884834289550781,-0.34117698669433594,-0.5752531439065933,14.75,0.0,0.8958578109741211,-0.18846988677978516,-0.5752531439065933,32.5,0.0,0.9101629257202148,-0.20563602447509766,-0.5752531439065933,28.25,0.0,1.5478134155273438,-0.7824897766113281,0.0,14.5,,,,,,,,,,,,,,,,,,,,,,,,,,,,,,,,,,,,,,,,,,,,,,,,,,,,,,,,,,,,
0.0,-0.15342366695404053,2.329882860183716,0.0019064953085035086,0.1643373966217041,-0.7234589457511902,0.029155537486076355,0.32368171215057373,-0.0008349195122718811,0.07004117965698242,0.0,0.9816884994506836,-0.2696514129638672,-0.5752531439065933,15.25,0.0,0.8983612060546875,-0.1766681671142578,-0.5752531439065933,37.5,0.0,0.8829832077026367,-0.17309188842773438,-0.5752531439065933,31.25,0.0,1.3625621795654297,-1.202702522277832,0.0,13.5,,,,,,,,,,,,,,,,,,,,,,,,,,,,,,,,,,,,,,,,,,,,,,,,,,,,,,,,,,,,
0.0,-0.25275057554244995,2.284299373626709,0.003456412348896265,-0.021131858229637146,-0.6663370728492737,0.03291311115026474,0.13554376363754272,0.0805426836013794,0.06753991544246674,0.0,0.9026527404785156,-0.15306472778320312,-0.5752531439065933,37.5,0.0,0.8432865142822266,-0.14519691467285156,-0.5752531439065933,27.25,,,,,,,,,,,,,,,,,,,,,,,,,,,,,,,,,,,,,,,,,,,,,,,,,,,,,,,,,,,,,,,,,,,,,,
0.0,-0.29004624485969543,2.197129249572754,0.0036261826753616333,-0.06174866482615471,-0.7553036212921143,0.033021293580532074,0.10043889284133911,-0.07832589745521545,0.06251034140586853,0.0,0.914454460144043,-0.040411949157714844,-0.3835020959377289,25.25,0.0,0.8679628372192383,0.011444091796875,-0.3835020959377289,13.25,0.0,1.4576911926269531,-0.3361701965332031,0.0,15.25,0.0,1.3278722763061523,-0.28824806213378906,0.0,20.0,,,,,,,,,,,,,,,,,,,,,,,,,,,,,,,,,,,,,,,,,,,,,,,,,,,,,,,,,,,,
0.0,-0.2935728132724762,2.1127066612243652,0.005230652168393135,-0.04714122787117958,-0.7776590585708618,0.035656992346048355,0.10521061718463898,-0.09583254903554916,0.05990965664386749,0.0,0.9112358093261719,-0.0890493392944336,-0.3835020959377289,26.25,,,,,,,,,,,,,,,,,,,,,,,,,,,,,,,,,,,,,,,,,,,,,,,,,,,,,,,,,,,,,,,,,,,,,,,,,,,
0.0,-0.33004939556121826,2.05122971534729,0.005497214384377003,-0.09808909893035889,-0.7375330924987793,0.03552226722240448,0.04830893501639366,-0.01968296617269516,0.05570017173886299,0.0,0.9015798568725586,-0.15878677368164062,-0.3835020959377289,20.25,0.0,1.0399818420410156,-0.25784969329833984,0.0,15.0,,,,,,,,,,,,,,,,,,,,,,,,,,,,,,,,,,,,,,,,,,,,,,,,,,,,,,,,,,,,,,,,,,,,,,
0.0,-0.3580603003501892,1.9698435068130493,0.006383388768881559,-0.12480354309082031,-0.7571454644203186,0.03603829815983772,0.022893773391842842,-0.04312194138765335,0.0522698350250721,0.0,1.0020732879638672,-0.35119056701660156,0.0,13.25,,,,,,,,,,,,,,,,,,,,,,,,,,,,,,,,,,,,,,,,,,,,,,,,,,,,,,,,,,,,,,,,,,,,,,,,,,,
0.0,-0.35191166400909424,1.889870285987854,0.006516536232084036,-0.08947198837995529,-0.7669486403465271,0.035050492733716965,0.05174603685736656,-0.04983837902545929,0.048166174441576004,,,,,,,,,,,,,,,,,,,,,,,,,,,,,,,,,,,,,,,,,,,,,,,,,,,,,,,,,,,,,,,,,,,,,,,,,,,,,,,,
0.0,-0.46163684129714966,1.8223774433135986,0.006431265268474817,-0.2677917182445526,-0.7525436878204346,0.0337144210934639,-0.11215947568416595,-0.016083382070064545,0.04421420767903328,,,,,,,,,,,,,,,,,,,,,,,,,,,,,,,,,,,,,,,,,,,,,,,,,,,,,,,,,,,,,,,,,,,,,,,,,,,,,,,,
0.0,-0.42174622416496277,1.7641263008117676,0.006466238293796778,-0.1588011384010315,-0.7146443128585815,0.03247559070587158,-0.00813545286655426,0.0310807004570961,0.040612515062093735,,,,,,,,,,,,,,,,,,,,,,,,,,,,,,,,,,,,,,,,,,,,,,,,,,,,,,,,,,,,,,,,,,,,,,,,,,,,,,,,
0.0,-0.49150899052619934,1.704404592514038,0.006301888730376959,-0.2480677366256714,-0.7343363165855408,0.03069135919213295,-0.07862143218517303,-0.021715588867664337,0.03687233477830887,,,,,,,,,,,,,,,,,,,,,,,,,,,,,,,,,,,,,,,,,,,,,,,,,,,,,,,,,,,,,,,,,,,,,,,,,,,,,,,,
0.0,-0.5746248364448547,1.617051362991333,0.0066318204626441,-0.36217308044433594,-0.7710385322570801,0.029749151319265366,-0.17321592569351196,-0.06186622008681297,0.03392784669995308,,,,,,,,,,,,,,,,,,,,,,,,,,,,,,,,,,,,,,,,,,,,,,,,,,,,,,,,,,,,,,,,,,,,,,,,,,,,,,,,
0.0,-0.5453816652297974,1.5466833114624023,0.0071138544008135796,-0.2519949674606323,-0.761432409286499,0.028981728479266167,-0.052751705050468445,-0.05253785476088524,0.03127565234899521,,,,,,,,,,,,,,,,,,,,,,,,,,,,,,,,,,,,,,,,,,,,,,,,,,,,,,,,,,,,,,,,,,,,,,,,,,,,,,,,
0.0,-0.513765811920166,1.4693570137023926,0.0080819521099329,-0.1501590758562088,-0.7614739537239075,0.028893599286675453,0.04763070493936539,-0.05272521451115608,0.02922089397907257,,,,,,,,,,,,,,,,,,,,,,,,,,,,,,,,,,,,,,,,,,,,,,,,,,,,,,,,,,,,,,,,,,,,,,,,,,,,,,,,
0.0,-0.44881704449653625,1.4206870794296265,0.00878124963492155,-0.007988080382347107,-0.695662260055542,0.028360648080706596,0.16255834698677063,0.0319739393889904,0.027054883539676666,,,,,,,,,,,,,,,,,,,,,,,,,,,,,,,,,,,,,,,,,,,,,,,,,,,,,,,,,,,,,,,,,,,,,,,,,,,,,,,,
0.0,-0.3778223991394043,1.354246735572815,0.008053666912019253,0.13324590027332306,-0.67403244972229,0.025637835264205933,0.2734488546848297,0.04931280016899109,0.023628832772374153,,,,,,,,,,,,,,,,,,,,,,,,,,,,,,,,,,,,,,,,,,,,,,,,,,,,,,,,,,,,,,,,,,,,,,,,,,,,,,,,
0.0,-0.35098931193351746,1.29367196559906,0.008009081706404686,0.17485101521015167,-0.6343479156494141,0.024121806025505066,0.27811482548713684,0.10550415515899658,0.021212635561823845,0.0,0.9130239486694336,-0.06580352783203125,0.7670041918754578,18.25,0.0,1.0843276977539062,-0.025033950805664062,0.7670041918754578,20.75,0.0,1.1601448059082031,0.19490718841552734,0.7670041918754578,20.5,0.0,1.2173652648925781,0.34368038177490234,0.7670041918754578,13.25,0.0,1.5660524368286133,-1.3875961303710938,0.0,13.5,0.0,0.8940696716308594,-0.1970529556274414,0.0,27.5,0.0,0.9398460388183594,-0.14770030975341797,0.0,22.25,,,,,,,,,,,,,,,,,,,,,,,,,,,,,,,,,,,,,,,,,,,,,
0.0,-0.31277185678482056,1.2229751348495483,0.008647073060274124,0.2331644594669342,-0.6214064359664917,0.023597272112965584,0.3026049733161926,0.11769653856754303,0.019548233598470688,0.0,1.2019872665405273,-0.994563102722168,0.7670041918754578,14.0,0.0,1.1969804763793945,-0.7263422012329102,0.7670041918754578,18.0,0.0,0.91552734375,0.013232231140136719,0.7670041918754578,14.75,0.0,1.1816024780273438,0.1405477523803711,0.7670041918754578,23.25,0.0,1.200556755065918,0.2231597900390625,0.7670041918754578,24.75,0.0,1.2470483779907227,0.23603439331054688,0.7670041918754578,18.5,0.0,1.5982389450073242,-1.3600587844848633,0.0,12.75,0.0,0.8976459503173828,-0.1798868179321289,0.0,27.25,0.0,1.0074377059936523,-0.08225440979003906,0.0,23.25,,,,,,,,,,,,,,,,,,,,,,,,,,,,,,,,,,,
0.0,-0.28363144397735596,1.149174451828003,0.008909223601222038,0.26790034770965576,-0.6158445477485657,0.022516664117574692,0.30440953373908997,0.12241761386394501,0.01763932965695858,0.0,1.382589340209961,-1.0818243026733398,0.9587552398443222,14.5,0.0,1.6021728515625,-1.1866092681884766,0.19175104796886444,12.25,0.0,1.7555952072143555,-1.2634992599487305,0.7670041918754578,13.75,0.0,1.3550519943237305,-0.719904899597168,0.5752531439065933,17.25,0.0,1.318216323852539,-0.4963874816894531,0.5752531439065933,20.0,0.0,1.271367073059082,-0.11372566223144531,0.5752531439065933,21.25,0.0,1.2298822402954102,-0.012159347534179688,0.7670041918754578,18.25,0.0,1.5016794204711914,-1.3235807418823242,0.0,14.25,0.0,1.6829967498779297,-1.2803077697753906,0.0,13.25,0.0,0.8972883224487305,-0.18167495727539062,0.0,25.5,0.0,1.0213851928710938,-0.08153915405273438,0.0,23.25,,,,,,,,,,,,,,,,,,,,,,,,,
0.0,-0.24533694982528687,1.080926537513733,0.008853471837937832,0.3131715655326843,-0.6029395461082458,0.021028434857726097,0.3154705762863159,0.13265939056873322,0.015595681965351105,0.0,1.6922950744628906,-1.3339519500732422,0.3835020959377289,18.0,0.0,1.7849206924438477,-1.3968944549560547,0.3835020959377289,15.75,0.0,1.4895200729370117,-0.9999275207519531,0.9587552398443222,19.5,0.0,1.5789270401000977,-1.1894702911376953,0.9587552398443222,18.25,0.0,1.4469623565673828,-0.560760498046875,0.5752531439065933,19.75,0.0,1.3729333877563477,-0.3654956817626953,0.5752531439065933,22.75,0.0,1.35040283203125,-0.29468536376953125,0.5752531439065933,20.25,0.0,0.9012222290039062,-0.16200542449951172,0.0,23.75,0.0,1.041412353515625,-0.06365776062011719,0.0,22.25,,,,,,,,,,,,,,,,,,,,,,,,,,,,,,,,,,,
0.0,-0.2021283060312271,1.0183840990066528,0.009237703867256641,0.36130744218826294,-0.5871090292930603,0.020188521593809128,0.3290163576602936,0.14048358798027039,0.014087151736021042,0.0,1.6608238220214844,-1.1011362075805664,1.1505062878131866,18.75,0.0,1.7588138580322266,-1.1909008026123047,0.19175104796886444,16.0,0.0,1.8718242645263672,-1.318216323852539,0.19175104796886444,13.75,0.0,1.6175508499145508,-0.9187459945678711,1.1505062878131866,17.25,0.0,1.3875961303710938,-0.016808509826660156,0.5752531439065933,19.25,0.0,1.4258623123168945,0.011086463928222656,0.5752531439065933,21.75,0.0,1.495957374572754,0.031828880310058594,0.5752531439065933,17.75,0.0,1.786351203918457,-1.4083385467529297,0.0,13.5,0.0,0.9069442749023438,-0.12624263763427734,0.0,19.5,,,,,,,,,,,,,,,,,,,,,,,,,,,,,,,,,,,
0.0,-0.12257319688796997,0.9770448207855225,0.009384481236338615,0.463697612285614,-0.5312618017196655,0.019074032083153725,0.3867036998271942,0.1922861635684967,0.012524450197815895,0.0,1.7169713973999023,-1.524209976196289,0.7670041918754578,14.75,0.0,1.8095970153808594,-1.2352466583251953,0.9587552398443222,17.0,0.0,1.7466545104980469,-0.8922815322875977,0.9587552398443222,14.5,0.0,1.511693000793457,-0.06258487701416016,0.5752531439065933,30.0,0.0,1.5249252319335938,-0.08726119995117188,0.5752531439065933,30.25,0.0,1.6025304794311523,-0.13053417205810547,0.5752531439065933,21.5,0.0,1.478433609008789,-0.0457763671875,0.7670041918754578,22.0,0.0,0.9108781814575195,-0.09119510650634766,0.0,17.5,,,,,,,,,,,,,,,,,,,,,,,,,,,,,,,,,,,,,,,,
0.0,-0.07361876219511032,0.9300598502159119,0.010101675055921078,0.5035572052001953,-0.49836474657058716,0.018720373511314392,0.3873404860496521,0.2106354832649231,0.011528855189681053,0.0,1.8889904022216797,-1.4551877975463867,0.3835020959377289,12.25,0.0,1.5031099319458008,0.02181529998779297,0.7670041918754578,24.5,0.0,1.5485286712646484,0.0171661376953125,0.7670041918754578,33.75,0.0,1.558542251586914,0.013589859008789062,0.7670041918754578,34.5,0.0,1.614689826965332,0.005364418029785156,0.7670041918754578,26.0,,,,,,,,,,,,,,,,,,,,,,,,,,,,,,,,,,,,,,,,,,,,,,,,,,,,,,,
0.0,-0.04470180347561836,0.8857877254486084,0.01039066631346941,0.5036678910255432,-0.46622568368911743,0.017808537930250168,0.3542146682739258,0.22618170082569122,0.010256802663207054,0.0,1.5395879745483398,0.02002716064453125,0.7670041918754578,19.75,0.0,1.6154050827026367,0.03361701965332031,0.7670041918754578,33.75,0.0,1.6275644302368164,0.04363059997558594,0.7670041918754578,37.25,0.0,1.7566680908203125,0.04470348358154297,0.7670041918754578,16.5,0.0,1.6522407531738281,0.06580352783203125,0.7670041918754578,32.0,0.0,1.7470121383666992,-1.4605522155761719,0.0,14.25,,,,,,,,,,,,,,,,,,,,,,,,,,,,,,,,,,,,,,,,,,,,,,,,,,
0.0,0.007436058949679136,0.8402960300445557,0.012222804129123688,0.26954469084739685,-0.22180375456809998,0.009417109191417694,0.0,0.0,0.0,0.0,1.9605159759521484,-1.3178586959838867,0.5752531439065933,13.75,0.0,2.0148754119873047,-1.4426708221435547,0.3835020959377289,12.25,0.0,1.9530057907104492,-0.9334087371826172,0.7670041918754578,14.75,0.0,1.7563104629516602,-0.7435083389282227,0.7670041918754578,14.5,0.0,1.6622543334960938,0.04363059997558594,0.9587552398443222,25.5,0.0,1.6683340072631836,0.0050067901611328125,0.9587552398443222,22.75,0.0,1.6493797302246094,0.06186962127685547,0.9587552398443222,19.0,,,,,,,,,,,,,,,,,,,,,,,,,,,,,,,,,,,,,,,,,,,,,
0.0,0.03439052775502205,0.8181156516075134,0.013164514675736427,0.0,0.0,0.0,0.0,0.0,0.0,0.0,2.1611452102661133,-1.239180564880371,1.342257335782051,14.25,0.0,2.0352602005004883,-1.0085105895996094,1.5340083837509155,17.25,0.0,1.9176006317138672,-0.8575916290283203,1.5340083837509155,24.5,0.0,1.8721818923950195,-0.035762786865234375,0.7670041918754578,25.75,0.0,1.809239387512207,0.06902217864990234,0.7670041918754578,23.5,0.0,1.8285512924194336,0.06723403930664062,0.7670041918754578,29.0,,,,,,,,,,,,,,,,,,,,,,,,,,,,,,,,,,,,,,,,,,,,,,,,,,
0.0,0.03439052775502205,0.8181156516075134,0.013164514675736427,0.0,0.0,0.0,0.0,0.0,0.0,0.0,1.9873380661010742,-1.0786056518554688,1.5340083837509155,26.25,0.0,2.086758613586426,-1.176595687866211,0.7670041918754578,15.5,0.0,1.9519329071044922,-1.003861427307129,1.5340083837509155,29.0,0.0,1.9823312759399414,-0.2599954605102539,0.7670041918754578,22.25,0.0,1.9322633743286133,-0.07832050323486328,0.7670041918754578,19.5,,,,,,,,,,,,,,,,,,,,,,,,,,,,,,,,,,,,,,,,,,,,,,,,,,,,,,,
0.0,0.03439052775502205,0.8181156516075134,0.013164514675736427,0.0,0.0,0.0,0.0,0.0,0.0,0.0,2.261638641357422,-1.0296106338500977,1.5340083837509155,23.0,0.0,2.373218536376953,-1.0836124420166016,0.3835020959377289,15.75,0.0,2.1965503692626953,-0.9380578994750977,1.5340083837509155,25.0,0.0,2.137899398803711,-0.38945674896240234,0.5752531439065933,22.75,0.0,1.999497413635254,0.01823902130126953,0.7670041918754578,20.75,0.0,1.956939697265625,0.07367134094238281,0.7670041918754578,17.0,0.0,2.2301673889160156,-1.386880874633789,0.0,13.5,0.0,2.2069215774536133,-1.1161565780639648,0.0,15.5,,,,,,,,,,,,,,,,,,,,,,,,,,,,,,,,,,,,,,,,
0.0,0.03439052775502205,0.8181156516075134,0.013164514675736427,0.0,0.0,0.0,0.0,0.0,0.0,0.0,2.409696578979492,-0.9105205535888672,0.19175104796886444,16.75,0.0,2.5151968002319336,-0.985264778137207,0.5752531439065933,15.0,0.0,2.235889434814453,-0.6208419799804688,0.5752531439065933,15.25,0.0,2.0678043365478516,0.046133995056152344,0.7670041918754578,17.5,0.0,2.0914077758789062,0.04363059997558594,0.7670041918754578,21.75,0.0,2.214789390563965,-1.4444589614868164,0.0,14.0,,,,,,,,,,,,,,,,,,,,,,,,,,,,,,,,,,,,,,,,,,,,,,,,,,
0.0,0.03439052775502205,0.8181156516075134,0.013164514675736427,0.0,0.0,0.0,0.0,0.0,0.0,0.0,2.38037109375,-1.009225845336914,0.19175104796886444,13.75,0.0,2.5963783264160156,-1.0532140731811523,0.5752531439065933,17.75,0.0,2.689361572265625,-0.9620189666748047,0.5752531439065933,16.25,0.0,2.2319555282592773,-0.3350973129272461,0.9587552398443222,17.25,0.0,2.1178722381591797,0.15592575073242188,0.9587552398443222,16.0,0.0,2.143979072570801,0.12767314910888672,0.9587552398443222,22.25,0.0,2.272367477416992,-1.4033317565917969,0.0,15.0,0.0,2.2194385528564453,-1.143336296081543,0.0,16.25,,,,,,,,,,,,,,,,,,,,,,,,,,,,,,,,,,,,,,,,
0.0,0.03439052775502205,0.8181156516075134,0.013164514675736427,0.0,0.0,0.0,0.0,0.0,0.0,0.0,2.328157424926758,-0.5128383636474609,0.7670041918754578,21.0,0.0,2.2809505462646484,-0.09548664093017578,1.1505062878131866,28.75,0.0,2.213716506958008,0.05328655242919922,0.9587552398443222,18.0,0.0,2.2573471069335938,0.012874603271484375,1.1505062878131866,30.0,0.0,2.319931983947754,-1.2642145156860352,0.0,15.0,,,,,,,,,,,,,,,,,,,,,,,,,,,,,,,,,,,,,,,,,,,,,,,,,,,,,,,
0.0,0.03439052775502205,0.8181156516075134,0.013164514675736427,0.0,0.0,0.0,0.0,0.0,0.0,0.0,2.6035308837890625,-1.5224218368530273,0.7670041918754578,13.75,0.0,2.582430839538574,-1.1436939239501953,1.342257335782051,17.25,0.0,2.5026798248291016,-0.7706880569458008,1.342257335782051,23.0,0.0,2.4526119232177734,-0.36585330963134766,0.7670041918754578,28.5,0.0,2.4290084838867188,-0.12159347534179688,0.7670041918754578,29.25,0.0,2.3778676986694336,0.001430511474609375,0.7670041918754578,23.25,0.0,2.3310184478759766,-1.2470483779907227,0.0,15.0,,,,,,,,,,,,,,,,,,,,,,,,,,,,,,,,,,,,,,,,,,,,,
0.0,0.03439052775502205,0.8181156516075134,0.013164514675736427,0.0,0.0,0.0,0.0,0.0,0.0,0.0,2.799510955810547,-1.0700225830078125,0.5752531439065933,15.75,0.0,2.742290496826172,-0.8718967437744141,0.5752531439065933,20.25,0.0,2.667546272277832,-0.6383657455444336,0.9587552398443222,21.0,0.0,2.5005340576171875,-0.10013580322265625,0.7670041918754578,22.0,0.0,2.3539066314697266,0.11658668518066406,0.7670041918754578,20.5,0.0,2.3900270462036133,0.09655952453613281,0.7670041918754578,25.0,0.0,2.4608373641967773,-1.1565685272216797,0.0,15.5,,,,,,,,,,,,,,,,,,,,,,,,,,,,,,,,,,,,,,,,,,,,,
0.0,0.03439052775502205,0.8181156516075134,0.013164514675736427,0.0,0.0,0.0,0.0,0.0,0.0,0.0,2.841353416442871,-1.3335943222045898,0.3835020959377289,12.25,0.0,2.7587413787841797,-1.1937618255615234,0.3835020959377289,17.25,0.0,2.7251243591308594,-0.9748935699462891,1.5340083837509155,22.25,0.0,2.655029296875,-0.47457218170166016,0.7670041918754578,22.0,0.0,2.407550811767578,0.22709369659423828,0.7670041918754578,17.25,0.0,2.4733543395996094,0.2110004425048828,0.7670041918754578,27.25,0.0,2.4944543838500977,0.21457672119140625,0.7670041918754578,28.0,0.0,2.8009414672851562,-1.0682344436645508,0.0,17.5,0.0,2.2176504135131836,0.05257129669189453,0.0,29.5,0.0,2.368927001953125,0.006079673767089844,0.0,30.5,,,,,,,,,,,,,,,,,,,,,,,,,,,,,,
0.0,0.09603141248226166,1.1060105562210083,0.01937822438776493,0.06633646786212921,0.7640087008476257,0.013386067934334278,0.0,0.0,0.0,0.0,3.2608509063720703,-0.8450746536254883,0.7670041918754578,12.0,0.0,3.094196319580078,-0.3064870834350586,0.5752531439065933,19.0,0.0,2.9861927032470703,0.07402896881103516,0.5752531439065933,29.0,0.0,2.93576717376709,0.13625621795654297,0.5752531439065933,24.75,0.0,2.967238426208496,0.11551380157470703,0.5752531439065933,31.25,,,,,,,,,,,,,,,,,,,,,,,,,,,,,,,,,,,,,,,,,,,,,,,,,,,,,,,
0.0,0.09978340566158295,1.1827784776687622,0.020040253177285194,0.03737063705921173,0.7676957249641418,0.006586505100131035,-0.0029861116781830788,0.00032569325412623584,-0.0006757994997315109,0.0,3.3119916915893555,-0.8300542831420898,1.342257335782051,23.25,0.0,3.403902053833008,-0.9140968322753906,0.3835020959377289,16.5,0.0,3.2404661178588867,-0.4845857620239258,1.342257335782051,23.75,0.0,3.110647201538086,0.007867813110351562,0.5752531439065933,24.25,0.0,2.9439926147460938,0.1659393310546875,0.5752531439065933,14.5,0.0,3.021240234375,0.18846988677978516,0.5752531439065933,23.0,,,,,,,,,,,,,,,,,,,,,,,,,,,,,,,,,,,,,,,,,,,,,,,,,,
0.0,0.06982342898845673,1.255476474761963,0.018856510519981384,-0.13532179594039917,0.7412925362586975,-0.00294894864782691,-0.042936258018016815,-0.060772672295570374,-0.003404563060030341,0.0,3.426074981689453,-0.8121728897094727,0.7670041918754578,14.25,0.0,3.4786462783813477,-0.9938478469848633,0.5752531439065933,14.5,0.0,3.0176639556884766,0.27108192443847656,0.7670041918754578,16.25,0.0,3.0384063720703125,0.3376007080078125,0.7670041918754578,17.25,,,,,,,,,,,,,,,,,,,,,,,,,,,,,,,,,,,,,,,,,,,,,,,,,,,,,,,,,,,,
0.0,-0.02270403876900673,1.334010362625122,0.01581929810345173,-0.4150703549385071,0.7451305985450745,-0.012871856801211834,-0.12897801399230957,-0.09987517446279526,-0.006726689636707306,0.0,3.467559814453125,-0.8533000946044922,0.5752531439065933,13.0,0.0,3.3473968505859375,-0.4963874816894531,0.3835020959377289,17.25,0.0,3.270864486694336,-0.24068355560302734,0.7670041918754578,20.25,0.0,3.208279609680176,0.032901763916015625,0.7670041918754578,18.5,,,,,,,,,,,,,,,,,,,,,,,,,,,,,,,,,,,,,,,,,,,,,,,,,,,,,,,,,,,,
0.0,-0.16623036563396454,1.4118467569351196,0.010643900372087955,-0.7018312215805054,0.7141839265823364,-0.024250809103250504,-0.23157837986946106,-0.2556860148906708,-0.012079430744051933,0.0,3.3338069915771484,-0.49746036529541016,0.7670041918754578,15.5,0.0,3.2579898834228516,0.08761882781982422,0.7670041918754578,19.5,0.0,3.204345703125,0.2617835998535156,0.7670041918754578,18.5,,,,,,,,,,,,,,,,,,,,,,,,,,,,,,,,,,,,,,,,,,,,,,,,,,,,,,,,,,,,,,,,,
0.0,-0.2585819661617279,1.4831962585449219,0.006040392909198999,-0.7669247388839722,0.6654383540153503,-0.030317379161715508,-0.23084723949432373,-0.36127880215644836,-0.01457187719643116,0.0,3.7146806716918945,-0.7807016372680664,0.9587552398443222,15.25,0.0,3.5719871520996094,-0.49424171447753906,1.1505062878131866,17.0,0.0,3.4579038619995117,-0.20956993103027344,0.7670041918754578,19.5,0.0,3.3856630325317383,-0.0064373016357421875,0.7670041918754578,18.0,0.0,3.7397146224975586,-0.619053840637207,0.0,12.25,,,,,,,,,,,,,,,,,,,,,,,,,,,,,,,,,,,,,,,,,,,,,,,,,,,,,,,
0.0,-0.2822117209434509,1.5551151037216187,0.0020555262453854084,-0.6757017970085144,0.6492134928703308,-0.03341696038842201,-0.1500152349472046,-0.33499908447265625,-0.015156462788581848,0.0,3.7751197814941406,-0.4105567932128906,0.19175104796886444,17.0,0.0,3.9843320846557617,-0.5947351455688477,0.5752531439065933,12.5,0.0,3.5469532012939453,-0.16307830810546875,0.7670041918754578,15.75,0.0,3.6592483520507812,-0.33295154571533203,0.3835020959377289,17.0,,,,,,,,,,,,,,,,,,,,,,,,,,,,,,,,,,,,,,,,,,,,,,,,,,,,,,,,,,,,
0.0,-0.26397037506103516,1.6355568170547485,-0.0015376352239400148,-0.5263662338256836,0.6751391887664795,-0.035176411271095276,-0.03241989016532898,-0.23270273208618164,-0.015135643072426319,0.0,3.771543502807617,-0.49102306365966797,0.19175104796886444,13.75,0.0,3.6295652389526367,-0.25177001953125,0.5752531439065933,14.75,0.0,3.516554832458496,0.007510185241699219,0.5752531439065933,15.25,,,,,,,,,,,,,,,,,,,,,,,,,,,,,,,,,,,,,,,,,,,,,,,,,,,,,,,,,,,,,,,,,
0.0,-0.33484867215156555,1.719254732131958,-0.003939030691981316,-0.565263032913208,0.6879870295524597,-0.03467773273587227,-0.0661475658416748,-0.19330063462257385,-0.013828543946146965,0.0,3.8301944732666016,-0.4706382751464844,1.342257335782051,18.75,0.0,4.000425338745117,-0.47457218170166016,1.342257335782051,19.75,0.0,3.63314151763916,0.008940696716308594,0.7670041918754578,19.25,0.0,3.463268280029297,0.2009868621826172,0.7670041918754578,14.5,0.0,3.5233497619628906,0.16736984252929688,0.7670041918754578,20.75,,,,,,,,,,,,,,,,,,,,,,,,,,,,,,,,,,,,,,,,,,,,,,,,,,,,,,,
0.0,-0.3848646581172943,1.8238000869750977,-0.006344533525407314,-0.5852623581886292,0.7782649993896484,-0.035177476704120636,-0.11675708740949631,-0.02401706576347351,-0.01466386765241623,0.0,3.7271976470947266,0.06437301635742188,0.7670041918754578,18.25,0.0,3.595590591430664,0.2760887145996094,0.7670041918754578,19.25,0.0,3.6410093307495117,0.22459030151367188,0.7670041918754578,22.25,,,,,,,,,,,,,,,,,,,,,,,,,,,,,,,,,,,,,,,,,,,,,,,,,,,,,,,,,,,,,,,,,
0.0,-0.49680259823799133,1.9178231954574585,-0.00821581669151783,-0.7159217000007629,0.82407146692276,-0.03461785241961479,-0.255216509103775,0.05341807007789612,-0.014054274186491966,0.0,4.027605056762695,0.0776052474975586,0.9587552398443222,12.5,0.0,3.6596059799194336,0.28002262115478516,0.9587552398443222,16.0,0.0,3.716111183166504,0.22995471954345703,0.9587552398443222,23.25,0.0,3.737211227416992,0.16450881958007812,0.9587552398443222,22.25,,,,,,,,,,,,,,,,,,,,,,,,,,,,,,,,,,,,,,,,,,,,,,,,,,,,,,,,,,,,
