tid,posx,posy,posz,velx,vely,velz,accx,accy,accz,pointx1,pointy1,pointz1,doppler1,snr1,pointx2,pointy2,pointz2,doppler2,snr2,pointx3,pointy3,pointz3,doppler3,snr3,pointx4,pointy4,pointz4,doppler4,snr4,pointx5,pointy5,pointz5,doppler5,snr5,pointx6,pointy6,pointz6,doppler6,snr6,pointx7,pointy7,pointz7,doppler7,snr7,pointx8,pointy8,pointz8,doppler8,snr8,pointx9,pointy9,pointz9,doppler9,snr9,pointx10,pointy10,pointz10,doppler10,snr10,pointx11,pointy11,pointz11,doppler11,snr11,pointx12,pointy12,pointz12,doppler12,snr12
0.0,0.2437751591205597,3.9344120025634766,-0.016477853059768677,0.08348894119262695,0.1528160572052002,-0.02938670478761196,0.12887531518936157,0.08809030801057816,0.03459988534450531,0.0,3.7529468536376953,0.09512901306152344,0.19175104796886444,14.75,0.0,3.8080215454101562,0.1577138900756836,0.19175104796886444,15.75,0.0,4.026532173156738,0.12445449829101562,0.0,17.75,0.0,3.808736801147461,0.30434131622314453,0.0,21.5,,,,,,,,,,,,,,,,,,,,,,,,,,,,,,,,,,,,,,,,
0.0,0.10830619931221008,3.943251609802246,-0.014720391482114792,-0.1482815146446228,0.16432242095470428,-0.018839986994862556,-0.0754031240940094,0.10007476061582565,0.03994963690638542,0.0,3.7164688110351562,-0.44989585876464844,0.19175104796886444,14.75,0.0,3.728628158569336,-0.13911724090576172,0.19175104796886444,15.75,0.0,3.8280487060546875,0.10800361633300781,0.0,20.25,0.0,4.027962684631348,0.06330013275146484,0.0,17.5,,,,,,,,,,,,,,,,,,,,,,,,,,,,,,,,,,,,,,,,
0.0,-0.0012502744793891907,3.975616216659546,-0.013962917029857635,-0.3152470588684082,0.20753470063209534,-0.011287436820566654,-0.20598329603672028,0.13718639314174652,0.042457371950149536,0.0,3.9947032928466797,-0.5207061767578125,0.3835020959377289,12.25,,,,,,,,,,,,,,,,,,,,,,,,,,,,,,,,,,,,,,,,,,,,,,,,,,,,,,,
0.0,0.12304985523223877,3.9754090309143066,-0.012613394297659397,-0.07607963681221008,0.16705237329006195,-0.003267758060246706,0.0008121281862258911,0.07268888503313065,0.04527264088392258,0.0,3.942131996154785,0.8296966552734375,-0.19175104796886444,12.25,0.0,3.8334131240844727,0.06473064422607422,0.0,20.0,,,,,,,,,,,,,,,,,,,,,,,,,,,,,,,,,,,,,,,,,,,,,,,,,,
0.0,0.13680313527584076,3.9365651607513428,-0.009395790286362171,-0.04127461463212967,0.0684693306684494,0.00676911324262619,0.026588106527924538,-0.04122889041900635,0.04926908761262894,0.0,3.7397146224975586,0.17917156219482422,-0.19175104796886444,16.5,0.0,3.769397735595703,0.15270709991455078,-0.19175104796886444,16.5,0.0,3.7636756896972656,0.11444091796875,0.0,20.0,0.0,3.8115978240966797,0.1709461212158203,0.0,21.5,,,,,,,,,,,,,,,,,,,,,,,,,,,,,,,,,,,,,,,,
0.0,0.1328086107969284,3.9432058334350586,-0.008472533896565437,0.0,0.0,0.0,0.0,0.0,0.0,0.0,3.759026527404785,0.13589859008789062,0.0,20.25,0.0,3.8133859634399414,0.1977682113647461,0.0,21.75,,,,,,,,,,,,,,,,,,,,,,,,,,,,,,,,,,,,,,,,,,,,,,,,,,
0.0,0.11787769943475723,3.9092772006988525,-0.006232450250536203,-0.022996729239821434,-0.0580562949180603,0.003472615499049425,-0.0177164189517498,-0.05907221883535385,0.002375202253460884,0.0,3.7354230880737305,0.09655952453613281,-0.19175104796886444,13.5,0.0,3.7851333618164062,0.07259845733642578,-0.19175104796886444,13.75,0.0,3.7626028060913086,0.10013580322265625,0.0,21.25,0.0,3.8112401962280273,0.17631053924560547,0.0,22.5,,,,,,,,,,,,,,,,,,,,,,,,,,,,,,,,,,,,,,,,
0.0,0.11787769943475723,3.9092772006988525,-0.006232450250536203,-0.022996729239821434,-0.0580562949180603,0.003472615499049425,-0.0177164189517498,-0.05907221883535385,0.002375202253460884,0.0,3.756880760192871,0.10120868682861328,0.0,20.75,0.0,3.809809684753418,0.15842914581298828,0.0,21.75,0.0,4.015803337097168,0.31578540802001953,0.0,18.25,,,,,,,,,,,,,,,,,,,,,,,,,,,,,,,,,,,,,,,,,,,,,
0.0,0.14330366253852844,3.899817705154419,-0.0054955375380814075,0.01649940200150013,-0.07520969212055206,0.00458295876160264,0.011590996757149696,-0.07672064006328583,0.0031238594092428684,0.0,3.814816474914551,0.2961158752441406,-0.19175104796886444,12.75,,,,,,,,,,,,,,,,,,,,,,,,,,,,,,,,,,,,,,,,,,,,,,,,,,,,,,,
0.0,0.14330366253852844,3.899817705154419,-0.0054955375380814075,0.01649940200150013,-0.07520969212055206,0.00458295876160264,0.011590996757149696,-0.07672064006328583,0.0031238594092428684,,,,,,,,,,,,,,,,,,,,,,,,,,,,,,,,,,,,,,,,,,,,,,,,,,,,,,,,,,,,
0.0,0.20854046940803528,3.911484718322754,-0.0037764599546790123,0.11872932314872742,-0.026281312108039856,0.006851141341030598,0.08917546272277832,-0.006315864622592926,0.004543527960777283,0.0,3.748655319213867,0.2778768539428711,0.19175104796886444,15.25,0.0,3.7872791290283203,0.3515481948852539,0.19175104796886444,17.0,0.0,4.001498222351074,0.4634857177734375,0.19175104796886444,12.25,,,,,,,,,,,,,,,,,,,,,,,,,,,,,,,,,,,,,,,,,,,,,
0.0,0.20854046940803528,3.911484718322754,-0.0037764599546790123,0.11872932314872742,-0.026281312108039856,0.006851141341030598,0.08917546272277832,-0.006315864622592926,0.004543527960777283,,,,,,,,,,,,,,,,,,,,,,,,,,,,,,,,,,,,,,,,,,,,,,,,,,,,,,,,,,,,
0.0,0.20854046940803528,3.911484718322754,-0.0037764599546790123,0.11872932314872742,-0.026281312108039856,0.006851141341030598,0.08917546272277832,-0.006315864622592926,0.004543527960777283,,,,,,,,,,,,,,,,,,,,,,,,,,,,,,,,,,,,,,,,,,,,,,,,,,,,,,,,,,,,
0.0,0.20854046940803528,3.911484718322754,-0.0037764599546790123,0.11872932314872742,-0.026281312108039856,0.006851141341030598,0.08917546272277832,-0.006315864622592926,0.004543527960777283,,,,,,,,,,,,,,,,,,,,,,,,,,,,,,,,,,,,,,,,,,,,,,,,,,,,,,,,,,,,
0.0,0.2182588279247284,3.908721446990967,-0.0031317034736275673,0.13550105690956116,-0.009185368195176125,0.007760282140225172,0.1030515655875206,0.02609492838382721,0.005135843064635992,0.0,3.742218017578125,0.28002262115478516,0.19175104796886444,17.0,0.0,3.75974178314209,0.2224445343017578,0.19175104796886444,17.5,,,,,,,,,,,,,,,,,,,,,,,,,,,,,,,,,,,,,,,,,,,,,,,,,,
0.0,0.26686227321624756,3.912195920944214,-0.0024393571075052023,0.21275243163108826,0.014691760763525963,0.008688743226230145,0.1622294932603836,0.06332921981811523,0.005723539274185896,0.0,3.7479400634765625,0.48100948333740234,0.19175104796886444,12.5,0.0,3.8133859634399414,0.46384334564208984,0.19175104796886444,15.75,0.0,4.009366035461426,0.39124488830566406,0.19175104796886444,12.5,,,,,,,,,,,,,,,,,,,,,,,,,,,,,,,,,,,,,,,,,,,,,
0.0,0.26686227321624756,3.912195920944214,-0.0024393571075052023,0.21275243163108826,0.014691760763525963,0.008688743226230145,0.1622294932603836,0.06332921981811523,0.005723539274185896,,,,,,,,,,,,,,,,,,,,,,,,,,,,,,,,,,,,,,,,,,,,,,,,,,,,,,,,,,,,
0.0,0.34532463550567627,3.9038736820220947,-0.0022233333438634872,0.33233994245529175,-0.010669887065887451,0.009016777388751507,0.24974432587623596,0.0312202088534832,0.0059447744861245155,0.0,3.802657127380371,0.8497238159179688,-0.19175104796886444,17.0,0.0,3.887772560119629,1.0546445846557617,-0.19175104796886444,15.75,,,,,,,,,,,,,,,,,,,,,,,,,,,,,,,,,,,,,,,,,,,,,,,,,,
0.0,0.33473140001296997,3.8998708724975586,-0.002136161318048835,0.3146185576915741,-0.01967882364988327,0.009168699383735657,0.23556400835514069,0.020428869873285294,0.006053905934095383,0.0,3.8344860076904297,0.18024444580078125,-0.19175104796886444,12.25,0.0,3.7658214569091797,0.217437744140625,0.0,20.0,,,,,,,,,,,,,,,,,,,,,,,,,,,,,,,,,,,,,,,,,,,,,,,,,,
0.0,0.33105728030204773,3.8956212997436523,-0.0020566366147249937,0.3078314960002899,-0.02849939838051796,0.009308094158768654,0.22967851161956787,0.010356600396335125,0.006154272705316544,0.0,3.818392753601074,0.2846717834472656,-0.19175104796886444,12.5,0.0,3.760814666748047,0.2903938293457031,0.0,19.75,,,,,,,,,,,,,,,,,,,,,,,,,,,,,,,,,,,,,,,,,,,,,,,,,,
0.0,0.3625882565975189,3.874556541442871,-0.0018029435304924846,0.353217750787735,-0.06496021896600723,0.009779265150427818,0.2608013451099396,-0.0264444462954998,0.006501288618892431,0.0,3.643512725830078,0.538945198059082,-0.19175104796886444,15.75,0.0,3.7064552307128906,0.5278587341308594,-0.19175104796886444,24.5,0.0,3.717184066772461,0.525355339050293,-0.19175104796886444,24.5,0.0,4.002571105957031,0.45561790466308594,-0.19175104796886444,15.25,,,,,,,,,,,,,,,,,,,,,,,,,,,,,,,,,,,,,,,,
0.0,0.3936269283294678,3.8592844009399414,-0.000807162607088685,0.3670022189617157,-0.08582132309675217,0.01042615994811058,0.24895401298999786,-0.04995853453874588,0.006504426244646311,0.0,3.6842823028564453,0.3447532653808594,-0.3835020959377289,12.5,,,,,,,,,,,,,,,,,,,,,,,,,,,,,,,,,,,,,,,,,,,,,,,,,,,,,,,
0.0,0.4757035970687866,3.8166470527648926,2.0525476429611444e-05,0.46503162384033203,-0.1606886088848114,0.010688058100640774,0.3036765158176422,-0.13963809609413147,0.006247490644454956,0.0,3.585219383239746,0.6161928176879883,-0.3835020959377289,16.25,0.0,3.618478775024414,0.6490945816040039,-0.3835020959377289,20.75,0.0,3.6420822143554688,0.7377862930297852,-0.3835020959377289,17.75,,,,,,,,,,,,,,,,,,,,,,,,,,,,,,,,,,,,,,,,,,,,,
0.0,0.45951420068740845,3.791602849960327,0.0008498555398546159,0.37691056728363037,-0.1840052455663681,0.010921664535999298,0.20542001724243164,-0.15172868967056274,0.0060036336071789265,0.0,3.6263465881347656,0.21958351135253906,-0.19175104796886444,13.25,0.0,3.67891788482666,0.2707242965698242,-0.19175104796886444,18.0,0.0,3.743290901184082,0.2732276916503906,-0.19175104796886444,16.0,,,,,,,,,,,,,,,,,,,,,,,,,,,,,,,,,,,,,,,,,,,,,
0.0,0.4267998933792114,3.7667806148529053,0.0015155524015426636,0.2687394917011261,-0.2001776546239853,0.0108640780672431,0.1011771485209465,-0.1521957665681839,0.005602693650871515,0.0,3.6013126373291016,0.1577138900756836,-0.19175104796886444,15.5,0.0,3.6399364471435547,0.20635128021240234,-0.19175104796886444,18.5,0.0,3.7440061569213867,0.3018379211425781,-0.19175104796886444,14.5,,,,,,,,,,,,,,,,,,,,,,,,,,,,,,,,,,,,,,,,,,,,,
0.0,0.4015187621116638,3.7405953407287598,0.002179639646783471,0.1864994764328003,-0.21445949375629425,0.010795173235237598,0.027913235127925873,-0.1485123485326767,0.005231704097241163,0.0,3.5752058029174805,0.14090538024902344,-0.19175104796886444,16.75,0.0,3.588438034057617,0.22602081298828125,-0.19175104796886444,17.75,,,,,,,,,,,,,,,,,,,,,,,,,,,,,,,,,,,,,,,,,,,,,,,,,,
0.0,0.4079122245311737,3.7184360027313232,0.0029454410541802645,0.16818863153457642,-0.22707650065422058,0.010840368457138538,0.01156039722263813,-0.14542123675346375,0.004955161828547716,0.0,3.6739110946655273,0.3165006637573242,-0.19175104796886444,13.75,,,,,,,,,,,,,,,,,,,,,,,,,,,,,,,,,,,,,,,,,,,,,,,,,,,,,,,
0.0,0.2629915475845337,3.711618423461914,0.002898432780057192,-0.09763087332248688,-0.2034236192703247,0.009798241779208183,-0.19119364023208618,-0.10632073879241943,0.004099752753973007,0.0,3.548741340637207,-0.0661611557006836,-0.19175104796886444,12.25,0.0,3.657817840576172,-0.08296966552734375,-0.19175104796886444,13.75,0.0,3.791213035583496,0.036835670471191406,-0.19175104796886444,12.0,0.0,3.975033760070801,-0.6537437438964844,0.0,14.25,0.0,3.7103891372680664,0.4820823669433594,0.0,21.75,,,,,,,,,,,,,,,,,,,,,,,,,,,,,,,,,,,
0.0,0.20974895358085632,3.6870028972625732,0.002784435637295246,-0.18521325290203094,-0.2183043658733368,0.008743466809391975,-0.24303299188613892,-0.11223991960287094,0.0033036640379577875,0.0,3.745436668395996,-0.18739700317382812,-0.3835020959377289,14.25,0.0,3.568410873413086,0.26607513427734375,-0.19175104796886444,17.5,0.0,3.6163330078125,0.20492076873779297,-0.19175104796886444,18.75,0.0,3.678560256958008,0.5342960357666016,0.0,19.0,,,,,,,,,,,,,,,,,,,,,,,,,,,,,,,,,,,,,,,,
0.0,0.24677181243896484,3.6530487537384033,0.002940408419817686,-0.1192798912525177,-0.23877598345279694,0.008156059309840202,-0.17489461600780487,-0.1127360388636589,0.002822591457515955,0.0,3.8144588470458984,-1.295328140258789,-0.7670041918754578,13.0,0.0,3.492593765258789,0.4291534423828125,-0.19175104796886444,16.0,0.0,3.539443016052246,0.4030466079711914,-0.19175104796886444,14.0,0.0,3.71396541595459,0.3039836883544922,0.0,17.5,,,,,,,,,,,,,,,,,,,,,,,,,,,,,,,,,,,,,,,,
0.0,0.13346056640148163,3.63710618019104,0.0022745495662093163,-0.29321610927581787,-0.23683616518974304,0.0066042374819517136,-0.2924354374408722,-0.10373091697692871,0.0018785743741318583,0.0,3.998994827270508,-0.4849433898925781,-0.3835020959377289,14.25,0.0,3.729701042175293,-0.17631053924560547,-0.3835020959377289,15.75,0.0,3.4847259521484375,0.1652240753173828,-0.19175104796886444,17.75,0.0,3.5276412963867188,0.15056133270263672,-0.19175104796886444,25.0,0.0,3.5598278045654297,0.1308917999267578,-0.19175104796886444,23.25,0.0,3.71396541595459,0.34046173095703125,0.0,16.0,,,,,,,,,,,,,,,,,,,,,,,,,,,,,,
0.0,0.11415603011846542,3.594430923461914,0.002237771637737751,-0.3041323721408844,-0.2819100618362427,0.005925741512328386,-0.27863308787345886,-0.14375928044319153,0.0014368832344189286,0.0,3.4804344177246094,0.1380443572998047,-0.3835020959377289,16.0,0.0,3.5201311111450195,0.1233816146850586,-0.3835020959377289,22.75,0.0,3.54158878326416,0.14197826385498047,-0.3835020959377289,20.5,0.0,3.7554502487182617,0.06759166717529297,0.0,12.75,0.0,3.4693479537963867,0.13303756713867188,0.0,14.25,0.0,3.513336181640625,0.1537799835205078,0.0,20.75,0.0,3.567337989807129,0.20992755889892578,0.0,18.5,,,,,,,,,,,,,,,,,,,,,,,,,
0.0,0.12984487414360046,3.558176279067993,0.002162274206057191,-0.25684303045272827,-0.304937481880188,0.005276847165077925,-0.21987858414649963,-0.14937537908554077,0.0010422217892482877,0.0,3.461122512817383,0.23496150970458984,-0.3835020959377289,15.0,0.0,3.504037857055664,0.263214111328125,-0.3835020959377289,20.75,0.0,3.556966781616211,0.2524852752685547,-0.19175104796886444,18.5,0.0,3.746151924133301,-0.3504753112792969,0.0,12.5,0.0,3.471851348876953,0.10371208190917969,0.0,13.75,0.0,3.5179853439331055,0.13768672943115234,0.0,20.5,0.0,3.565192222595215,0.19490718841552734,0.0,18.5,,,,,,,,,,,,,,,,,,,,,,,,,
0.0,0.13392235338687897,3.52571964263916,0.0020590978674590588,-0.22963517904281616,-0.31955862045288086,0.004650427959859371,-0.18082047998905182,-0.14672324061393738,0.0006829425692558289,0.0,3.4346580505371094,0.2510547637939453,-0.3835020959377289,15.25,0.0,3.4940242767333984,0.22923946380615234,-0.3835020959377289,19.5,0.0,3.6031007766723633,0.15985965728759766,-0.19175104796886444,17.5,0.0,3.4700632095336914,0.17344951629638672,0.0,17.0,0.0,3.5104751586914062,0.18095970153808594,0.0,23.0,0.0,3.562331199645996,0.20456314086914062,0.0,21.0,,,,,,,,,,,,,,,,,,,,,,,,,,,,,,
0.0,0.05983109027147293,3.4898319244384766,0.0019368890207260847,-0.3284164369106293,-0.34354618191719055,0.004044350236654282,-0.2456880509853363,-0.16060520708560944,0.00035222270525991917,0.0,3.4182071685791016,-0.057220458984375,-0.3835020959377289,15.25,0.0,3.465414047241211,-0.051856040954589844,-0.3835020959377289,18.0,0.0,3.560185432434082,-0.09799003601074219,-0.3835020959377289,14.0,0.0,3.5086870193481445,0.21600723266601562,0.0,22.5,0.0,3.5626888275146484,0.26214122772216797,0.0,20.5,,,,,,,,,,,,,,,,,,,,,,,,,,,,,,,,,,,
0.0,0.016014762222766876,3.450705051422119,0.0019527784315869212,-0.36864590644836426,-0.36566880345344543,0.0036433495115488768,-0.2583358585834503,-0.1670961230993271,0.00014006946003064513,0.0,3.3878087997436523,-0.013589859008789062,-0.3835020959377289,16.75,0.0,3.438591957092285,-0.02968311309814453,-0.3835020959377289,17.75,0.0,3.738999366760254,0.1823902130126953,0.0,14.75,,,,,,,,,,,,,,,,,,,,,,,,,,,,,,,,,,,,,,,,,,,,,
0.0,-0.022141506895422935,3.4133026599884033,0.002317813690751791,-0.3944794833660126,-0.3823784291744232,0.00365735637024045,0.0,0.0,0.0,,,,,,,,,,,,,,,,,,,,,,,,,,,,,,,,,,,,,,,,,,,,,,,,,,,,,,,,,,,,
0.0,-0.06733225286006927,3.354146718978882,0.0023534283973276615,-0.40165382623672485,-0.43142950534820557,0.003291220171377063,-0.004746398888528347,-0.06245992332696915,-0.00017838053463492543,0.0,3.290891647338867,-0.1233816146850586,-0.7670041918754578,15.0,,,,,,,,,,,,,,,,,,,,,,,,,,,,,,,,,,,,,,,,,,,,,,,,,,,,,,,
0.0,-0.12941910326480865,3.286735773086548,0.00204396597109735,-0.43436676263809204,-0.4836135506629944,0.002599176485091448,-0.02890753000974655,-0.11486037075519562,-0.0004984500701539218,0.0,3.1843185424804688,-0.1838207244873047,-0.5752531439065933,16.0,0.0,3.2204389572143555,-0.17595291137695312,-0.5752531439065933,15.75,,,,,,,,,,,,,,,,,,,,,,,,,,,,,,,,,,,,,,,,,,,,,,,,,,
0.0,-0.18381956219673157,3.2244701385498047,0.001761989900842309,-0.45243778824806213,-0.5225815176963806,0.0019944068044424057,-0.03974083811044693,-0.14688174426555634,-0.000758457463234663,0.0,3.1585693359375,-0.2224445343017578,-0.5752531439065933,15.0,0.0,3.229379653930664,-0.2027750015258789,-0.5752531439065933,14.5,,,,,,,,,,,,,,,,,,,,,,,,,,,,,,,,,,,,,,,,,,,,,,,,,,
0.0,-0.22926205396652222,3.1714775562286377,0.0019576381891965866,-0.45641186833381653,-0.5372697114944458,0.0019185610581189394,0.0,0.0,0.0,,,,,,,,,,,,,,,,,,,,,,,,,,,,,,,,,,,,,,,,,,,,,,,,,,,,,,,,,,,,
0.0,-0.27490323781967163,3.117750644683838,0.0021494943648576736,-0.45641186833381653,-0.5372697114944458,0.0019185610581189394,0.0,0.0,0.0,,,,,,,,,,,,,,,,,,,,,,,,,,,,,,,,,,,,,,,,,,,,,,,,,,,,,,,,,,,,
0.0,-0.32054442167282104,3.064023733139038,0.0023413505405187607,-0.45641186833381653,-0.5372697114944458,0.0019185610581189394,0.0,0.0,0.0,,,,,,,,,,,,,,,,,,,,,,,,,,,,,,,,,,,,,,,,,,,,,,,,,,,,,,,,,,,,
0.0,-0.12579040229320526,1.7181179523468018,0.030070824548602104,0.013998941518366337,-0.19120562076568604,-0.0033465169835835695,0.0,0.0,0.0,0.0,2.0581483840942383,-1.1622905731201172,0.5752531439065933,16.0,0.0,2.0781755447387695,-1.30462646484375,0.3835020959377289,13.0,0.0,1.9701719284057617,-1.0371208190917969,0.3835020959377289,17.0,0.0,1.7015933990478516,-0.19347667694091797,0.19175104796886444,23.75,0.0,1.707315444946289,-0.2263784408569336,0.19175104796886444,23.75,0.0,1.804947853088379,-0.2893209457397461,0.3835020959377289,13.25,0.0,1.6554594039916992,-0.12481212615966797,0.19175104796886444,15.5,0.0,1.9948482513427734,-1.340031623840332,0.0,18.0,0.0,2.030611038208008,-1.4154911041259766,0.0,17.75,0.0,1.9129514694213867,-1.0542869567871094,0.0,18.5,,,,,,,,,,
0.0,-0.12163174897432327,1.7126407623291016,0.02941087819635868,0.04149185121059418,-0.05082365870475769,-0.006560971960425377,-0.0018925981130450964,0.07895113527774811,0.0007695676758885384,0.0,2.095341682434082,-1.3511180877685547,0.19175104796886444,15.25,0.0,2.063155174255371,-1.0986328125,0.19175104796886444,15.5,0.0,1.9869804382324219,-0.8736848831176758,0.19175104796886444,19.5,0.0,1.8210411071777344,-0.33795833587646484,0.19175104796886444,16.0,0.0,1.7173290252685547,-0.2034902572631836,0.19175104796886444,25.25,0.0,1.7169713973999023,-0.13697147369384766,0.19175104796886444,25.25,0.0,1.67083740234375,-0.0400543212890625,0.19175104796886444,16.25,0.0,2.0799636840820312,-1.3554096221923828,0.0,17.75,0.0,2.0188093185424805,-1.2867450714111328,0.0,17.0,0.0,1.9125938415527344,-1.0138750076293945,0.0,18.5,,,,,,,,,,
0.0,-0.1273985356092453,1.6978521347045898,0.024828080087900162,-0.008905090391635895,-0.09947267174720764,-0.026607641950249672,-0.00864671915769577,0.018223319202661514,-0.003940183203667402,0.0,1.684427261352539,0.06008148193359375,0.19175104796886444,14.5,0.0,1.7538070678710938,0.1062154769897461,0.19175104796886444,24.5,0.0,1.7663240432739258,0.16736984252929688,0.19175104796886444,26.25,0.0,1.8067359924316406,0.2492666244506836,0.19175104796886444,20.0,0.0,2.068161964416504,-1.2298822402954102,0.0,16.75,0.0,2.1185874938964844,-1.2981891632080078,0.0,17.0,0.0,1.9712448120117188,-0.9466409683227539,0.0,18.0,,,,,,,,,,,,,,,,,,,,,,,,,
0.0,-0.0700373575091362,1.7061173915863037,0.01795429363846779,0.19280104339122772,-0.01936270296573639,-0.04143435135483742,0.0465288981795311,0.13891837000846863,-0.006973148323595524,0.0,1.7620325088500977,-0.2052783966064453,0.3835020959377289,26.75,0.0,1.8171072006225586,-0.1856088638305664,0.3835020959377289,21.25,0.0,1.6847848892211914,-0.08118152618408203,0.3835020959377289,13.5,0.0,1.7459392547607422,-0.16307830810546875,0.3835020959377289,23.75,0.0,2.009153366088867,-1.3443231582641602,0.0,18.25,0.0,2.048492431640625,-1.3918876647949219,0.0,18.75,0.0,1.956939697265625,-0.9291172027587891,0.0,19.0,0.0,1.6483068466186523,-0.19562244415283203,0.0,15.5,0.0,1.707315444946289,-0.2321004867553711,0.0,24.25,0.0,1.7294883728027344,-0.27430057525634766,0.0,25.5,,,,,,,,,,
0.0,-0.03789442777633667,1.7195121049880981,0.009604474529623985,0.2312810868024826,0.05648782476782799,-0.05328890681266785,0.05779207497835159,0.2682059705257416,-0.010615799576044083,0.0,2.0052194595336914,-1.4094114303588867,0.5752531439065933,14.25,0.0,2.0377635955810547,-1.485586166381836,0.3835020959377289,15.25,0.0,1.7588138580322266,-0.0833272933959961,0.5752531439065933,21.0,0.0,1.7824172973632812,-0.14841556549072266,0.5752531439065933,23.25,0.0,1.8514394760131836,-0.15592575073242188,0.5752531439065933,18.5,0.0,2.027750015258789,-1.3049840927124023,0.0,18.25,0.0,2.058863639831543,-1.381516456604004,0.0,18.5,0.0,1.946568489074707,-0.9087324142456055,0.0,19.75,,,,,,,,,,,,,,,,,,,,
0.0,0.01692487671971321,1.7209525108337402,0.0036086924374103546,0.3094105124473572,0.05720161646604538,-0.055763255804777145,0.09629160165786743,0.20652729272842407,-0.011357038281857967,0.0,1.9286870956420898,-1.4230012893676758,0.19175104796886444,13.5,0.0,2.0946264266967773,-1.4609098434448242,0.3835020959377289,12.5,0.0,1.990199089050293,-0.46312808990478516,0.5752531439065933,15.25,0.0,1.807093620300293,0.054001808166503906,0.5752531439065933,18.75,0.0,1.8367767333984375,0.05328655242919922,0.5752531439065933,23.5,0.0,1.8714666366577148,0.02753734588623047,0.5752531439065933,20.75,0.0,2.063870429992676,-1.3804435729980469,0.0,18.0,,,,,,,,,,,,,,,,,,,,,,,,,
0.0,-0.0355827733874321,1.7338184118270874,-0.002160454634577036,0.1473124921321869,0.11423329263925552,-0.05728134512901306,-0.010898679494857788,0.2970369756221771,-0.011876276694238186,0.0,2.1085739135742188,-1.2881755828857422,0.19175104796886444,13.75,0.0,2.0617246627807617,-0.9834766387939453,0.19175104796886444,20.25,0.0,1.9898414611816406,-0.687718391418457,0.5752531439065933,24.25,0.0,1.9336938858032227,-0.4069805145263672,0.5752531439065933,23.25,0.0,1.8979310989379883,-0.2943277359008789,0.5752531439065933,21.25,,,,,,,,,,,,,,,,,,,,,,,,,,,,,,,,,,,
0.0,-0.13478930294513702,1.7538973093032837,-0.006433271802961826,-0.07374013960361481,0.17159503698349,-0.05559893324971199,-0.17672227323055267,0.34845972061157227,-0.009856725111603737,0.0,2.204775810241699,-1.238107681274414,0.3835020959377289,12.75,0.0,2.390742301940918,-1.2438297271728516,0.3835020959377289,13.0,0.0,2.0846128463745117,-0.9158849716186523,0.7670041918754578,18.0,0.0,1.8879175186157227,0.05257129669189453,0.5752531439065933,13.0,0.0,2.0220279693603516,0.03647804260253906,0.3835020959377289,26.75,0.0,1.9598007202148438,0.06866455078125,0.3835020959377289,25.25,0.0,1.9737482070922852,0.06973743438720703,0.3835020959377289,28.25,,,,,,,,,,,,,,,,,,,,,,,,,
0.0,-0.3627011179924011,1.7827229499816895,-0.007148257922381163,-0.49805811047554016,0.21324685215950012,-0.0468536838889122,-0.5119810700416565,0.3302675485610962,-0.0008112434297800064,0.0,2.2248029708862305,-1.07574462890625,1.1505062878131866,13.5,0.0,2.1371841430664062,-0.7259845733642578,1.1505062878131866,17.5,0.0,2.0002126693725586,0.14519691467285156,0.5752531439065933,20.25,0.0,2.0248889923095703,0.18739700317382812,0.5752531439065933,26.5,0.0,2.042412757873535,0.2574920654296875,0.5752531439065933,27.0,,,,,,,,,,,,,,,,,,,,,,,,,,,,,,,,,,,
0.0,-0.4284084141254425,1.796165108680725,-0.00842909887433052,-0.5604485869407654,0.20283402502536774,-0.03994494304060936,-0.5024144649505615,0.24946285784244537,0.00631878525018692,0.0,2.341747283935547,-1.2191534042358398,0.19175104796886444,12.5,0.0,2.283453941345215,-1.028895378112793,1.1505062878131866,19.75,0.0,2.186894416809082,-0.6726980209350586,0.5752531439065933,20.5,0.0,2.1039247512817383,-0.2943277359008789,0.5752531439065933,20.5,0.0,2.113938331604004,-0.21457672119140625,0.5752531439065933,27.0,,,,,,,,,,,,,,,,,,,,,,,,,,,,,,,,,,,
0.0,-0.48754045367240906,1.8188445568084717,-0.007318943273276091,-0.6008334159851074,0.21130704879760742,-0.029443465173244476,-0.47982269525527954,0.20855750143527985,0.01593155600130558,0.0,2.391815185546875,-1.3257265090942383,0.19175104796886444,16.5,0.0,2.3778676986694336,-1.508474349975586,0.19175104796886444,12.75,0.0,2.356410026550293,-1.0285377502441406,0.7670041918754578,15.25,0.0,2.262711524963379,-0.3300905227661133,0.3835020959377289,16.5,0.0,2.1750926971435547,-0.13267993927001953,0.3835020959377289,20.0,0.0,2.122163772583008,0.008940696716308594,0.3835020959377289,12.75,,,,,,,,,,,,,,,,,,,,,,,,,,,,,,
0.0,-0.5051605105400085,1.8375334739685059,-0.006557703483849764,-0.5365073680877686,0.19474394619464874,-0.020070526748895645,-0.3418503403663635,0.13109470903873444,0.024106981232762337,0.0,2.2977590560913086,-0.6748437881469727,0.5752531439065933,16.5,0.0,2.2215843200683594,-0.37872791290283203,0.5752531439065933,25.25,0.0,2.1758079528808594,-0.20813941955566406,0.5752531439065933,15.75,0.0,2.1976232528686523,-0.28324127197265625,0.5752531439065933,28.25,0.0,2.5609731674194336,1.5832185745239258,0.5752531439065933,13.0,0.0,2.607107162475586,1.5639066696166992,0.5752531439065933,13.75,0.0,2.3049116134643555,-1.3425350189208984,0.0,14.75,,,,,,,,,,,,,,,,,,,,,,,,,
0.0,-0.400080144405365,1.882859468460083,-0.006783046759665012,-0.248600572347641,0.27348971366882324,-0.015075268223881721,-0.014271080493927002,0.20723535120487213,0.026116564869880676,0.0,2.2208690643310547,0.1119375228881836,0.7670041918754578,12.25,0.0,2.287745475769043,0.15914440155029297,0.7670041918754578,25.0,0.0,2.2999048233032227,0.18274784088134766,0.7670041918754578,25.75,0.0,2.369999885559082,0.10156631469726562,0.7670041918754578,17.75,0.0,2.3152828216552734,-1.3425350189208984,0.0,14.5,,,,,,,,,,,,,,,,,,,,,,,,,,,,,,,,,,,
0.0,-0.36787402629852295,1.9154086112976074,-0.0063123381696641445,-0.14305780827999115,0.32516881823539734,-0.009333555586636066,0.08636672049760818,0.25649744272232056,0.02875578962266445,0.0,2.4672746658325195,-0.9677410125732422,0.5752531439065933,13.75,0.0,2.3467540740966797,-0.5478858947753906,0.7670041918754578,19.5,0.0,2.433657646179199,-0.49245357513427734,0.7670041918754578,17.0,0.0,2.293109893798828,0.02110004425048828,0.7670041918754578,14.75,0.0,2.3260116577148438,-1.3071298599243164,0.0,14.5,0.0,2.2344589233398438,-0.1748800277709961,0.0,26.0,,,,,,,,,,,,,,,,,,,,,,,,,,,,,,
0.0,-0.40801936388015747,1.958866834640503,-0.004646109417080879,-0.19311222434043884,0.38581445813179016,-0.002283237874507904,0.02290084958076477,0.31503915786743164,0.032223574817180634,0.0,2.567768096923828,-1.3532638549804688,0.7670041918754578,18.75,0.0,2.655029296875,-1.4190673828125,0.7670041918754578,15.5,0.0,2.37429141998291,-0.9688138961791992,0.7670041918754578,21.75,0.0,2.4737119674682617,-1.099705696105957,1.1505062878131866,19.0,0.0,2.358555793762207,-0.6723403930664062,0.5752531439065933,18.75,0.0,2.3134946823120117,-0.0711679458618164,0.5752531439065933,14.75,0.0,2.2448301315307617,-0.16129016876220703,0.0,26.25,0.0,2.157926559448242,-0.043272972106933594,0.0,30.5,,,,,,,,,,,,,,,,,,,,
0.0,-0.4028174877166748,2.0080058574676514,-0.003059925977140665,-0.14659138023853302,0.44401127099990845,0.0038302475586533546,0.06118820607662201,0.35061901807785034,0.03462027758359909,0.0,2.645730972290039,-1.2445449829101562,0.5752531439065933,17.5,0.0,2.789139747619629,-1.2871026992797852,0.5752531439065933,15.75,0.0,2.9271841049194336,-1.2509822845458984,0.5752531439065933,12.5,0.0,2.5702714920043945,-0.6805658340454102,0.7670041918754578,17.5,0.0,2.479434013366699,-0.17952919006347656,0.7670041918754578,23.25,0.0,2.38037109375,0.04649162292480469,0.3835020959377289,17.5,0.0,2.4358034133911133,-0.07152557373046875,0.3835020959377289,24.25,,,,,,,,,,,,,,,,,,,,,,,,,
0.0,-0.48563459515571594,2.0364911556243896,-0.0017742827767506242,-0.27040743827819824,0.4377647638320923,0.008771507069468498,-0.05496354401111603,0.3052920699119568,0.035905223339796066,0.0,2.7233362197875977,-1.3164281845092773,0.19175104796886444,17.25,0.0,2.6721954345703125,-1.1343955993652344,0.19175104796886444,20.5,0.0,2.624630928039551,-0.39196014404296875,0.5752531439065933,20.5,0.0,2.505183219909668,0.04649162292480469,0.5752531439065933,23.5,0.0,2.529144287109375,0.056862831115722656,0.5752531439065933,25.5,0.0,2.5337934494018555,-0.7982254028320312,0.0,16.75,0.0,2.167940139770508,-0.13875961303710938,0.0,16.5,0.0,2.212643623352051,-0.14519691467285156,0.0,30.25,,,,,,,,,,,,,,,,,,,,
0.0,-0.4235888123512268,2.097529411315918,-0.0006675914046354592,-0.10264545679092407,0.48872753977775574,0.01239345595240593,0.10182161629199982,0.31023985147476196,0.03590960428118706,0.0,2.8377771377563477,-1.157999038696289,0.19175104796886444,16.75,0.0,2.7594566345214844,-0.9530782699584961,0.7670041918754578,16.5,0.0,2.4683475494384766,-0.6068944931030273,0.5752531439065933,13.5,0.0,2.55739688873291,-0.49746036529541016,0.5752531439065933,18.75,0.0,2.6464462280273438,-0.5593299865722656,0.5752531439065933,17.0,0.0,2.2176504135131836,-0.1512765884399414,0.0,30.0,,,,,,,,,,,,,,,,,,,,,,,,,,,,,,
0.0,-0.34773796796798706,2.1762282848358154,0.0008408508729189634,0.05777326971292496,0.5997582674026489,0.016104724258184433,0.22295325994491577,0.41568097472190857,0.035992562770843506,0.0,2.6514530181884766,0.06330013275146484,0.5752531439065933,18.5,0.0,2.670407295227051,0.16951560974121094,0.5752531439065933,19.0,0.0,2.7691125869750977,-1.2946128845214844,0.0,13.5,0.0,2.6046037673950195,-0.3007650375366211,0.0,16.25,0.0,2.184748649597168,-0.1283884048461914,0.0,16.25,0.0,2.225160598754883,-0.14984607696533203,0.0,29.75,,,,,,,,,,,,,,,,,,,,,,,,,,,,,,
0.0,-0.40228819847106934,2.229992151260376,0.0020558563992381096,-0.03026052564382553,0.6269989609718323,0.01877303048968315,0.12996025383472443,0.4076624810695648,0.0353233702480793,0.0,2.5713443756103516,-0.26679039001464844,0.7670041918754578,12.25,0.0,2.658247947692871,-0.286102294921875,0.7670041918754578,21.75,0.0,2.718687057495117,-0.14269351959228516,0.7670041918754578,23.5,0.0,2.7916431427001953,-0.04076957702636719,0.5752531439065933,19.25,0.0,2.747654914855957,-1.3235807418823242,0.0,13.5,,,,,,,,,,,,,,,,,,,,,,,,,,,,,,,,,,,
0.0,-0.47313201427459717,2.2723207473754883,0.0024384274147450924,-0.12828640639781952,0.5823225975036621,0.019386596977710724,0.04938601702451706,0.27935558557510376,0.03320382907986641,0.0,2.776980400085449,-0.504612922668457,0.9587552398443222,19.25,0.0,2.7587413787841797,-0.3236532211303711,0.9587552398443222,21.0,0.0,2.7179718017578125,-0.14841556549072266,0.7670041918754578,15.75,,,,,,,,,,,,,,,,,,,,,,,,,,,,,,,,,,,,,,,,,,,,,
0.0,-0.4622548222541809,2.324122667312622,0.003550420980900526,-0.08303800225257874,0.5997487306594849,0.02119450457394123,0.08328874409198761,0.2659633755683899,0.03219713270664215,0.0,3.0530691146850586,-1.1823177337646484,0.3835020959377289,15.0,0.0,2.9500722885131836,-0.6365776062011719,1.1505062878131866,14.75,0.0,2.74658203125,0.18167495727539062,0.7670041918754578,16.75,0.0,2.787351608276367,0.1766681671142578,0.5752531439065933,23.5,0.0,2.816319465637207,0.09012222290039062,0.5752531439065933,21.5,,,,,,,,,,,,,,,,,,,,,,,,,,,,,,,,,,,
0.0,-0.32974687218666077,2.4111223220825195,0.004757102578878403,0.15408554673194885,0.6879516243934631,0.022932857275009155,0.2593230903148651,0.3371772766113281,0.03128247335553169,0.0,2.9382705688476562,-0.00286102294921875,0.5752531439065933,14.75,0.0,3.039121627807617,-0.09548664093017578,0.5752531439065933,12.25,,,,,,,,,,,,,,,,,,,,,,,,,,,,,,,,,,,,,,,,,,,,,,,,,,
0.0,-0.35238975286483765,2.4731154441833496,0.005747122690081596,0.11635155975818634,0.7155839800834656,0.024043597280979156,0.2093963325023651,0.34017041325569153,0.030053874477744102,0.0,3.302335739135742,-1.0932683944702148,0.19175104796886444,15.0,0.0,3.2140016555786133,-0.7878541946411133,0.19175104796886444,12.75,0.0,3.055572509765625,-0.4202127456665039,0.5752531439065933,13.75,0.0,2.95865535736084,-0.2796649932861328,0.5752531439065933,14.25,,,,,,,,,,,,,,,,,,,,,,,,,,,,,,,,,,,,,,,,
0.0,-0.5165714621543884,2.535574436187744,0.006042025983333588,-0.14010187983512878,0.7401767373085022,0.024061698466539383,-0.004583492875099182,0.3513582944869995,0.028308019042015076,0.0,3.317713737487793,-1.0821819305419922,0.5752531439065933,17.0,0.0,3.3652782440185547,-1.1272430419921875,0.5752531439065933,13.0,0.0,3.2268762588500977,-0.7556676864624023,1.1505062878131866,12.5,0.0,2.9937028884887695,-0.0021457672119140625,0.5752531439065933,17.0,0.0,3.040909767150879,0.0661611557006836,0.3835020959377289,16.5,,,,,,,,,,,,,,,,,,,,,,,,,,,,,,,,,,,
0.0,-0.5228053331375122,2.596235990524292,0.005789098795503378,-0.11976772546768188,0.7140127420425415,0.023005355149507523,0.022925691679120064,0.2515838146209717,0.026009391993284225,0.0,3.3463239669799805,-1.2470483779907227,0.3835020959377289,12.25,0.0,3.3005475997924805,-1.1515617370605469,0.5752531439065933,14.75,0.0,2.9937028884887695,0.36156177520751953,0.5752531439065933,19.5,0.0,3.0176639556884766,0.38373470306396484,0.5752531439065933,19.75,0.0,3.1338930130004883,0.3286600112915039,0.7670041918754578,12.75,0.0,3.094196319580078,-1.169443130493164,0.0,12.5,0.0,3.0008554458618164,0.17273426055908203,0.0,18.5,,,,,,,,,,,,,,,,,,,,,,,,,
0.0,-0.5081353783607483,2.6511995792388916,0.006318422965705395,-0.06974794715642929,0.6752253770828247,0.023004494607448578,0.0703071728348732,0.14735859632492065,0.024498840793967247,0.0,3.0759572982788086,0.19741058349609375,0.7670041918754578,18.75,0.0,3.1020641326904297,0.1995563507080078,0.7670041918754578,23.0,0.0,3.1256675720214844,0.24640560150146484,0.7670041918754578,18.25,0.0,3.2758712768554688,-1.156926155090332,0.0,13.5,,,,,,,,,,,,,,,,,,,,,,,,,,,,,,,,,,,,,,,,
0.0,-0.5654735565185547,2.70064640045166,0.006841089576482773,-0.13622280955314636,0.6419022679328918,0.023039348423480988,0.019705355167388916,0.08136151731014252,0.02316271699965,0.0,3.236532211303711,-0.11050701141357422,0.7670041918754578,19.5,0.0,3.257274627685547,-0.1480579376220703,0.7670041918754578,22.0,0.0,3.3119916915893555,-0.20599365234375,0.3835020959377289,16.0,,,,,,,,,,,,,,,,,,,,,,,,,,,,,,,,,,,,,,,,,,,,,
0.0,-0.5020048022270203,2.769097089767456,0.008414147421717644,-0.01869352161884308,0.6540879011154175,0.024322517216205597,0.10864932835102081,0.07801574468612671,0.022608555853366852,0.0,3.328084945678711,-0.41306018829345703,0.9587552398443222,16.5,0.0,3.282308578491211,-0.23281574249267578,0.7670041918754578,20.25,0.0,3.2504796981811523,-0.0776052474975586,0.7670041918754578,16.5,0.0,3.2597780227661133,-1.078963279724121,0.0,15.25,,,,,,,,,,,,,,,,,,,,,,,,,,,,,,,,,,,,,,,,
0.0,-0.43106895685195923,2.835613250732422,0.009079968556761742,0.09602373838424683,0.678742527961731,0.024448275566101074,0.18419109284877777,0.10403642058372498,0.0215203408151865,0.0,3.576993942260742,-0.5933046340942383,1.5340083837509155,12.75,0.0,3.4285783767700195,0.2410411834716797,0.7670041918754578,15.25,0.0,3.303050994873047,0.5507469177246094,0.7670041918754578,15.75,0.0,3.3380985260009766,-0.8018016815185547,0.0,16.0,,,,,,,,,,,,,,,,,,,,,,,,,,,,,,,,,,,,,,,,
0.0,-0.4030548632144928,2.9090001583099365,0.010173749178647995,0.13775068521499634,0.7249331474304199,0.02505386248230934,0.19743883609771729,0.16492728888988495,0.020775239914655685,0.0,3.6896467208862305,-1.165151596069336,0.7670041918754578,15.75,0.0,3.820180892944336,-1.2778043746948242,0.5752531439065933,12.75,0.0,3.395676612854004,0.22673606872558594,0.5752531439065933,21.0,0.0,3.398895263671875,0.2460479736328125,0.5752531439065933,22.0,0.0,3.472566604614258,0.4445314407348633,0.5752531439065933,14.0,,,,,,,,,,,,,,,,,,,,,,,,,,,,,,,,,,,
0.0,-0.33159855008125305,2.9742040634155273,0.00993913784623146,0.23791936039924622,0.7273964285850525,0.02403337135910988,0.257607638835907,0.1449003964662552,0.019246097654104233,0.0,3.9310455322265625,-0.880122184753418,0.19175104796886444,12.25,0.0,3.7146806716918945,-0.5797147750854492,0.19175104796886444,16.5,0.0,3.600597381591797,-0.10728836059570312,0.5752531439065933,20.0,0.0,3.442525863647461,0.2664327621459961,0.5752531439065933,16.25,0.0,3.5086870193481445,0.20205974578857422,0.5752531439065933,21.0,,,,,,,,,,,,,,,,,,,,,,,,,,,,,,,,,,,
0.0,-0.2805500328540802,3.041231393814087,0.011212180368602276,0.2999764680862427,0.7242843508720398,0.024643657729029655,0.28510069847106934,0.1182112991809845,0.018602615222334862,0.0,3.895998001098633,-1.0238885879516602,0.9587552398443222,16.0,0.0,3.777623176574707,-0.5053281784057617,0.9587552398443222,15.75,0.0,3.6041736602783203,0.3018379211425781,0.5752531439065933,18.5,0.0,3.5272836685180664,0.43952465057373047,0.5752531439065933,18.5,0.0,3.561258316040039,0.06830692291259766,0.0,18.25,0.0,3.453969955444336,0.17595291137695312,0.0,22.75,,,,,,,,,,,,,,,,,,,,,,,,,,,,,,
0.0,-0.3539734482765198,3.086484670639038,0.010839927941560745,0.18037471175193787,0.6543011665344238,0.023463040590286255,0.17985835671424866,0.004639782011508942,0.01713794842362404,0.0,3.9539337158203125,-0.7706880569458008,0.19175104796886444,13.0,0.0,3.7554502487182617,-0.24569034576416016,0.19175104796886444,17.0,0.0,3.641366958618164,0.2428293228149414,0.7670041918754578,19.75,0.0,3.575563430786133,0.3572702407836914,0.7670041918754578,17.75,0.0,3.450751304626465,0.2199411392211914,0.0,23.0,0.0,3.5587549209594727,0.11479854583740234,0.0,19.0,,,,,,,,,,,,,,,,,,,,,,,,,,,,,,
0.0,-0.38366204500198364,3.159010887145996,0.01022413931787014,0.13166314363479614,0.6611499190330505,0.022191012278199196,0.13176707923412323,0.009361429139971733,0.015771647915244102,0.0,4.00543212890625,-0.42879581451416016,0.5752531439065933,15.5,0.0,3.7200450897216797,0.29289722442626953,0.7670041918754578,21.75,0.0,3.7643909454345703,0.1806020736694336,0.5752531439065933,21.5,0.0,3.6510229110717773,0.3579854965209961,0.7670041918754578,14.5,0.0,3.380298614501953,0.12552738189697266,0.0,21.0,0.0,3.4765005111694336,0.2167224884033203,0.0,23.25,0.0,3.5877227783203125,0.2485513687133789,0.0,21.5,,,,,,,,,,,,,,,,,,,,,,,,,
0.0,-0.3056058883666992,3.22279691696167,0.009926230646669865,0.23352402448654175,0.6478030681610107,0.02123349718749523,0.1968151032924652,-0.016516128554940224,0.014604900032281876,0.0,3.7300586700439453,0.43129920959472656,0.7670041918754578,20.75,0.0,3.7375688552856445,0.44095516204833984,0.7670041918754578,21.25,0.0,3.9997100830078125,0.47957897186279297,0.9587552398443222,12.75,0.0,3.402113914489746,0.2460479736328125,0.0,19.5,0.0,3.5129785537719727,0.2410411834716797,0.0,23.25,,,,,,,,,,,,,,,,,,,,,,,,,,,,,,,,,,,
0.0,-0.19978803396224976,3.287538766860962,0.010736154392361641,0.3650602102279663,0.6635676026344299,0.0213591530919075,0.276445209980011,0.014407260343432426,0.014001770876348019,0.0,3.8977861404418945,0.039696693420410156,0.7670041918754578,14.75,0.0,4.027247428894043,-0.09334087371826172,0.7670041918754578,14.0,0.0,3.4339427947998047,0.217437744140625,0.0,19.25,0.0,3.514409065246582,0.23031234741210938,0.0,23.5,,,,,,,,,,,,,,,,,,,,,,,,,,,,,,,,,,,,,,,,
0.0,-0.16081900894641876,3.347595691680908,0.011308074928820133,0.3941904902458191,0.660777747631073,0.021229039877653122,0.2775784432888031,0.014406122267246246,0.013315039686858654,0.0,3.887772560119629,0.28502941131591797,0.5752531439065933,16.75,0.0,4.025459289550781,0.15270709991455078,0.5752531439065933,15.25,0.0,3.4285783767700195,0.26857852935791016,0.0,19.5,0.0,3.513336181640625,0.2535581588745117,0.0,23.5,,,,,,,,,,,,,,,,,,,,,,,,,,,,,,,,,,,,,,,,
0.0,-0.13531526923179626,3.413876533508301,0.011823611333966255,0.4039798676967621,0.6866892576217651,0.021035991609096527,0.26566025614738464,0.06048494577407837,0.012652097269892693,0.0,3.938913345336914,0.2624988555908203,0.5752531439065933,13.0,0.0,4.014730453491211,0.3286600112915039,0.5752531439065933,14.5,0.0,3.461122512817383,0.2224445343017578,0.0,17.25,,,,,,,,,,,,,,,,,,,,,,,,,,,,,,,,,,,,,,,,,,,,,
0.0,-0.0412580780684948,3.5026700496673584,0.012208974920213223,0.5057195425033569,0.7519275546073914,0.020724505186080933,0.3197958767414093,0.14584004878997803,0.011986630037426949,,,,,,,,,,,,,,,,,,,,,,,,,,,,,,,,,,,,,,,,,,,,,,,,,,,,,,,,,,,,
0.0,0.050792843103408813,3.552217483520508,0.012482469901442528,0.5857712030410767,0.7112119197845459,0.02022903971374035,0.3513070046901703,0.07584793865680695,0.011215738020837307,0.0,4.018664360046387,0.27823448181152344,0.7670041918754578,19.0,,,,,,,,,,,,,,,,,,,,,,,,,,,,,,,,,,,,,,,,,,,,,,,,,,,,,,,
0.0,0.011296890676021576,3.600484848022461,0.01134304516017437,0.4774814248085022,0.6442486047744751,0.01853351667523384,0.24614736437797546,-0.0331934317946434,0.009965851902961731,,,,,,,,,,,,,,,,,,,,,,,,,,,,,,,,,,,,,,,,,,,,,,,,,,,,,,,,,,,,
0.0,0.07257677614688873,3.6656768321990967,0.01155711431056261,0.5189568996429443,0.6459433436393738,0.018073607236146927,0.25809401273727417,-0.024878598749637604,0.009337907657027245,,,,,,,,,,,,,,,,,,,,,,,,,,,,,,,,,,,,,,,,,,,,,,,,,,,,,,,,,,,,
0.0,0.08350719511508942,3.7209644317626953,0.011140079237520695,0.485002338886261,0.6133131384849548,0.017069295048713684,0.21464994549751282,-0.07029429078102112,0.008492636494338512,,,,,,,,,,,,,,,,,,,,,,,,,,,,,,,,,,,,,,,,,,,,,,,,,,,,,,,,,,,,
0.0,0.13364966213703156,3.7863001823425293,0.010793670080602169,0.5086886882781982,0.6181062459945679,0.016150066629052162,0.217023566365242,-0.05370984226465225,0.007736066356301308,,,,,,,,,,,,,,,,,,,,,,,,,,,,,,,,,,,,,,,,,,,,,,,,,,,,,,,,,,,,
0.0,0.23800812661647797,3.8519771099090576,0.01095149852335453,0.6031817197799683,0.6348139643669128,0.015660157427191734,0.26938921213150024,-0.01607995107769966,0.007197526283562183,,,,,,,,,,,,,,,,,,,,,,,,,,,,,,,,,,,,,,,,,,,,,,,,,,,,,,,,,,,,
0.0,0.26120519638061523,3.9244678020477295,0.011443346738815308,0.5829649567604065,0.6538193225860596,0.01546157244592905,0.23926153779029846,0.009627263993024826,0.006810027174651623,,,,,,,,,,,,,,,,,,,,,,,,,,,,,,,,,,,,,,,,,,,,,,,,,,,,,,,,,,,,
0.0,0.30279359221458435,3.981839895248413,0.01184853632003069,0.5804461240768433,0.6353065371513367,0.015158426947891712,0.2193152755498886,-0.017016494646668434,0.006379900965839624,,,,,,,,,,,,,,,,,,,,,,,,,,,,,,,,,,,,,,,,,,,,,,,,,,,,,,,,,,,,
0.0,0.3486863672733307,4.034750461578369,0.01213991828262806,0.5822673439979553,0.6120299696922302,0.014747770503163338,0.20386800169944763,-0.04398791491985321,0.005922665819525719,,,,,,,,,,,,,,,,,,,,,,,,,,,,,,,,,,,,,,,,,,,,,,,,,,,,,,,,,,,,
0.0,0.40793243050575256,4.095733642578125,0.013644308783113956,0.6026541590690613,0.6076312065124512,0.01534003671258688,0.0,0.0,0.0,,,,,,,,,,,,,,,,,,,,,,,,,,,,,,,,,,,,,,,,,,,,,,,,,,,,,,,,,,,,
0.0,0.45156192779541016,4.154135704040527,0.014345319010317326,0.5835926532745361,0.6111669540405273,0.014658000320196152,-0.011067498475313187,0.008618294261395931,-0.00028798120911233127,,,,,,,,,,,,,,,,,,,,,,,,,,,,,,,,,,,,,,,,,,,,,,,,,,,,,,,,,,,,
0.0,0.5098658800125122,4.215295314788818,0.0158096794039011,0.5824859142303467,0.6120287775993347,0.014629201963543892,0.0,0.0,0.0,,,,,,,,,,,,,,,,,,,,,,,,,,,,,,,,,,,,,,,,,,,,,,,,,,,,,,,,,,,,
0.0,0.5681144595146179,4.276498317718506,0.017272599041461945,0.5824859142303467,0.6120287775993347,0.014629201963543892,0.0,0.0,0.0,,,,,,,,,,,,,,,,,,,,,,,,,,,,,,,,,,,,,,,,,,,,,,,,,,,,,,,,,,,,
0.0,0.6263630390167236,4.337701320648193,0.01873551867902279,0.5824859142303467,0.6120287775993347,0.014629201963543892,0.0,0.0,0.0,0.0,3.609895706176758,-1.109004020690918,-0.19175104796886444,13.75,0.0,3.5179853439331055,-0.23925304412841797,-0.5752531439065933,18.0,0.0,3.311634063720703,0.019311904907226562,-0.3835020959377289,14.5,0.0,3.3860206604003906,-0.03790855407714844,-0.3835020959377289,22.75,0.0,3.4232139587402344,-0.09512901306152344,-0.7670041918754578,23.75,0.0,3.6292076110839844,1.7484426498413086,-0.3835020959377289,12.5,,,,,,,,,,,,,,,,,,,,,,,,,,,,,,
0.0,0.6846116185188293,4.398904323577881,0.020198438316583633,0.5824859142303467,0.6120287775993347,0.014629201963543892,0.0,0.0,0.0,0.0,3.624558448791504,-0.9813308715820312,-0.19175104796886444,15.75,0.0,3.476858139038086,-0.7055997848510742,-0.3835020959377289,19.0,0.0,3.27301025390625,-0.4945993423461914,-0.3835020959377289,19.25,0.0,3.3184289932250977,-0.43594837188720703,-0.3835020959377289,26.25,0.0,3.3649206161499023,-0.40519237518310547,-0.3835020959377289,24.75,,,,,,,,,,,,,,,,,,,,,,,,,,,,,,,,,,,
0.0,0.7428601980209351,4.460107326507568,0.021661357954144478,0.5824859142303467,0.6120287775993347,0.014629201963543892,0.0,0.0,0.0,0.0,3.4908056259155273,-0.6827116012573242,-0.3835020959377289,13.75,0.0,3.362417221069336,0.10442733764648438,-0.3835020959377289,19.75,0.0,3.269076347351074,0.125885009765625,-0.3835020959377289,18.5,0.0,3.3037662506103516,0.15985965728759766,-0.3835020959377289,23.0,,,,,,,,,,,,,,,,,,,,,,,,,,,,,,,,,,,,,,,,
0.0,0.8011087775230408,4.521310329437256,0.023124277591705322,0.5824859142303467,0.6120287775993347,0.014629201963543892,0.0,0.0,0.0,0.0,3.4668445587158203,-0.8397102355957031,-0.5752531439065933,12.75,0.0,3.3359527587890625,-0.5146265029907227,-0.5752531439065933,18.25,0.0,3.284454345703125,-0.2936124801635742,-0.5752531439065933,21.0,0.0,3.234386444091797,-0.05364418029785156,-0.5752531439065933,17.5,,,,,,,,,,,,,,,,,,,,,,,,,,,,,,,,,,,,,,,,
0.0,0.8593573570251465,4.582513332366943,0.024587197229266167,0.5824859142303467,0.6120287775993347,0.014629201963543892,0.0,0.0,0.0,0.0,3.5119056701660156,-0.8550882339477539,-0.5752531439065933,12.5,0.0,3.359198570251465,-0.7138252258300781,-0.5752531439065933,13.75,0.0,3.2390356063842773,-0.40519237518310547,-0.7670041918754578,16.0,0.0,3.156423568725586,0.007867813110351562,-0.7670041918754578,16.25,,,,,,,,,,,,,,,,,,,,,,,,,,,,,,,,,,,,,,,,
0.0,0.9176059365272522,4.643716335296631,0.02605011686682701,0.5824859142303467,0.6120287775993347,0.014629201963543892,0.0,0.0,0.0,0.0,3.296971321105957,-0.7975101470947266,-0.19175104796886444,15.25,0.0,3.2025575637817383,-0.2574920654296875,-0.5752531439065933,19.0,0.0,3.130674362182617,-0.054717063903808594,-0.5752531439065933,20.5,0.0,3.0634403228759766,0.1569986343383789,-0.5752531439065933,16.75,,,,,,,,,,,,,,,,,,,,,,,,,,,,,,,,,,,,,,,,
0.0,0.9758545160293579,4.704919338226318,0.027513036504387856,0.5824859142303467,0.6120287775993347,0.014629201963543892,0.0,0.0,0.0,0.0,3.3402442932128906,-0.39267539978027344,-0.19175104796886444,17.5,0.0,3.0444860458374023,0.09298324584960938,-0.9587552398443222,21.5,0.0,3.109574317932129,0.08046627044677734,-0.9587552398443222,23.5,0.0,3.2150745391845703,-0.08082389831542969,-0.19175104796886444,21.5,,,,,,,,,,,,,,,,,,,,,,,,,,,,,,,,,,,,,,,,
0.0,1.0341031551361084,4.766122341156006,0.0289759561419487,0.5824859142303467,0.6120287775993347,0.014629201963543892,0.0,0.0,0.0,0.0,3.2132863998413086,-1.3793706893920898,-0.3835020959377289,12.25,0.0,3.1653642654418945,-0.10442733764648438,-0.5752531439065933,13.0,0.0,2.924680709838867,-0.016450881958007812,-0.9587552398443222,17.75,0.0,2.948284149169922,-0.007152557373046875,-0.3835020959377289,23.25,0.0,2.9965639114379883,-0.04863739013671875,-0.3835020959377289,19.75,,,,,,,,,,,,,,,,,,,,,,,,,,,,,,,,,,,
0.0,1.0923517942428589,4.827325344085693,0.030438875779509544,0.5824859142303467,0.6120287775993347,0.014629201963543892,0.0,0.0,0.0,0.0,3.209710121154785,-1.306772232055664,-0.19175104796886444,15.5,0.0,3.3066272735595703,-1.291036605834961,-0.19175104796886444,12.25,0.0,3.1310319900512695,-0.7277727127075195,-0.5752531439065933,14.75,0.0,2.9497146606445312,0.056862831115722656,-0.3835020959377289,23.5,0.0,2.796292304992676,0.18346309661865234,-0.7670041918754578,13.5,0.0,2.8810501098632812,0.1709461212158203,-0.7670041918754578,26.0,0.0,2.8978586196899414,0.14698505401611328,-0.7670041918754578,29.0,,,,,,,,,,,,,,,,,,,,,,,,,
0.0,1.1506004333496094,4.888528347015381,0.03190179541707039,0.5824859142303467,0.6120287775993347,0.014629201963543892,0.0,0.0,0.0,0.0,3.1456947326660156,-1.2885332107543945,-0.3835020959377289,14.5,0.0,3.1113624572753906,-1.1283159255981445,-0.3835020959377289,16.0,0.0,2.7523040771484375,0.15091896057128906,-0.7670041918754578,14.0,0.0,2.94649600982666,0.18095970153808594,-0.5752531439065933,16.5,0.0,2.830982208251953,0.2778768539428711,-0.3835020959377289,22.5,0.0,2.8477907180786133,0.3726482391357422,-0.3835020959377289,23.5,,,,,,,,,,,,,,,,,,,,,,,,,,,,,,
0.0,-0.08611997216939926,3.410426378250122,0.05955043435096741,0.013308978639543056,-0.5270472168922424,-0.009202921763062477,0.0,0.0,0.0,0.0,2.1071434020996094,0.091552734375,-0.19175104796886444,13.5,,,,,,,,,,,,,,,,,,,,,,,,,,,,,,,,,,,,,,,,,,,,,,,,,,,,,,,
0.0,-0.09769707173109055,3.365664005279541,0.05718016251921654,-0.1164882704615593,-0.4452487826347351,-0.02374199405312538,-0.014346073381602764,0.047470007091760635,-0.0007855453295633197,0.0,2.0999908447265625,0.016808509826660156,-0.3835020959377289,13.25,0.0,1.7141103744506836,1.2946128845214844,-0.3835020959377289,12.25,,,,,,,,,,,,,,,,,,,,,,,,,,,,,,,,,,,,,,,,,,,,,,,,,,
0.0,-0.10165300220251083,3.324937582015991,0.050255708396434784,-0.07835462689399719,-0.4202877879142761,-0.04697300121188164,-0.006879647262394428,0.07170301675796509,-0.004994277376681566,0.0,2.067089080810547,0.06008148193359375,-0.3835020959377289,15.0,,,,,,,,,,,,,,,,,,,,,,,,,,,,,,,,,,,,,,,,,,,,,,,,,,,,,,,
0.0,-0.15250451862812042,3.2726423740386963,0.03817713260650635,-0.22872596979141235,-0.46309444308280945,-0.07327543944120407,-0.049762122333049774,-0.026535406708717346,-0.01354379765689373,0.0,2.039194107055664,-0.09047985076904297,-0.3835020959377289,18.0,0.0,1.9780397415161133,-0.04684925079345703,-0.3835020959377289,13.5,0.0,2.4890899658203125,-1.4369487762451172,0.0,12.25,,,,,,,,,,,,,,,,,,,,,,,,,,,,,,,,,,,,,,,,,,,,,
0.0,-0.23225581645965576,3.2107043266296387,0.024179518222808838,-0.38623642921447754,-0.5349758267402649,-0.0927385538816452,-0.10475882887840271,-0.18185736238956451,-0.021562349051237106,0.0,1.9311904907226562,0.07045269012451172,-0.3835020959377289,16.5,0.0,1.9690990447998047,0.09369850158691406,-0.3835020959377289,18.25,,,,,,,,,,,,,,,,,,,,,,,,,,,,,,,,,,,,,,,,,,,,,,,,,,
0.0,-0.2537388801574707,3.160360336303711,0.010274993255734444,-0.35655611753463745,-0.5396989583969116,-0.10516098141670227,-0.0853276327252388,-0.16000892221927643,-0.02644668146967888,0.0,1.9036531448364258,0.22423267364501953,-0.5752531439065933,17.25,0.0,1.9376277923583984,0.20885467529296875,-0.5752531439065933,18.0,0.0,2.025604248046875,0.04112720489501953,0.0,17.0,,,,,,,,,,,,,,,,,,,,,,,,,,,,,,,,,,,,,,,,,,,,,
0.0,-0.21139812469482422,3.1081318855285645,3.3848744351416826e-05,-0.2030777484178543,-0.5586513876914978,-0.1068539172410965,0.02021913230419159,-0.1854831576347351,-0.025535710155963898,0.0,1.8031597137451172,0.1087188720703125,-0.5752531439065933,12.75,0.0,1.852869987487793,0.12981891632080078,-0.5752531439065933,18.5,0.0,1.890420913696289,0.07081031799316406,-0.5752531439065933,16.5,0.0,1.880049705505371,0.1609325408935547,0.0,17.75,0.0,1.9633769989013672,0.11157989501953125,0.0,18.25,,,,,,,,,,,,,,,,,,,,,,,,,,,,,,,,,,,
0.0,-0.16711899638175964,3.0538198947906494,-0.007276969961822033,-0.07749127596616745,-0.5672433972358704,-0.10282373428344727,0.11124638468027115,-0.16666173934936523,-0.02101564034819603,0.0,2.327442169189453,-1.120448112487793,-0.3835020959377289,12.5,0.0,1.8543004989624023,0.03325939178466797,-0.5752531439065933,13.75,0.0,1.7702579498291016,0.06973743438720703,-0.5752531439065933,17.5,0.0,1.783132553100586,0.08618831634521484,-0.5752531439065933,20.0,0.0,1.8085241317749023,0.14698505401611328,0.0,12.75,0.0,1.8693208694458008,0.16486644744873047,0.0,19.0,0.0,1.9522905349731445,0.1055002212524414,0.0,19.0,,,,,,,,,,,,,,,,,,,,,,,,,
0.0,-0.14224497973918915,2.9958443641662598,-0.009952446445822716,-0.005698293447494507,-0.5894375443458557,-0.0906660184264183,0.16367018222808838,-0.1805926114320755,-0.009452859871089458,0.0,1.8128156661987305,0.07653236389160156,0.0,12.75,0.0,1.8725395202636719,0.12123584747314453,0.0,19.25,0.0,1.9469261169433594,0.07009506225585938,0.0,19.25,,,,,,,,,,,,,,,,,,,,,,,,,,,,,,,,,,,,,,,,,,,,,
0.0,-0.08654451370239258,2.950589656829834,-0.012673195451498032,0.11468246579170227,-0.5589731931686401,-0.08042927086353302,0.2596924901008606,-0.10224339365959167,-0.00037659425288438797,0.0,2.064943313598633,-1.4483928680419922,-0.19175104796886444,14.5,0.0,2.0427703857421875,-1.224517822265625,-0.19175104796886444,13.5,0.0,2.021312713623047,-0.5786418914794922,-0.7670041918754578,14.5,0.0,1.8936395645141602,-0.35190582275390625,-0.7670041918754578,18.0,0.0,1.7795562744140625,-0.18846988677978516,-0.3835020959377289,21.0,0.0,1.717686653137207,-0.13589859008789062,-0.3835020959377289,20.25,0.0,1.7791986465454102,-0.010728836059570312,0.0,15.75,0.0,1.8471479415893555,0.06902217864990234,0.0,20.25,,,,,,,,,,,,,,,,,,,,
0.0,-0.0075814127922058105,2.910029888153076,-0.015958037227392197,0.26905563473701477,-0.5220803022384644,-0.07208866626024246,0.38720497488975525,-0.03222930431365967,0.006872271187603474,0.0,1.8181800842285156,-0.3826618194580078,-0.5752531439065933,15.75,0.0,1.9758939743041992,-0.3393888473510742,-0.5752531439065933,19.75,0.0,2.00808048248291,-0.4277229309082031,-0.5752531439065933,15.0,0.0,1.6036033630371094,0.07081031799316406,-0.5752531439065933,16.0,0.0,1.6021728515625,0.2893209457397461,-0.5752531439065933,20.0,0.0,1.9211769104003906,-1.4519691467285156,0.0,12.25,,,,,,,,,,,,,,,,,,,,,,,,,,,,,,
0.0,-0.04148971661925316,2.8538711071014404,-0.017098192125558853,0.1865830421447754,-0.5186028480529785,-0.060288917273283005,0.26703858375549316,-0.00867241621017456,0.017125889658927917,0.0,1.9490718841552734,-0.5747079849243164,-0.3835020959377289,16.5,0.0,1.9000768661499023,-0.3336668014526367,-0.3835020959377289,19.75,0.0,1.9158124923706055,-0.4127025604248047,-0.3835020959377289,21.25,0.0,1.7294883728027344,0.22137165069580078,-0.5752531439065933,13.5,0.0,1.9161701202392578,-1.4230012893676758,0.0,12.25,0.0,1.821756362915039,-0.041484832763671875,0.0,22.75,,,,,,,,,,,,,,,,,,,,,,,,,,,,,,
0.0,-0.0882887914776802,2.834321975708008,-0.013171662576496601,0.0847456157207489,-0.41350501775741577,-0.04182399809360504,0.14090020954608917,0.1524031013250351,0.0313679538667202,0.0,1.8496513366699219,-0.20885467529296875,-0.3835020959377289,25.0,0.0,1.8968582153320312,-0.22530555725097656,-0.3835020959377289,24.0,0.0,1.981973648071289,-0.28002262115478516,-0.3835020959377289,14.5,0.0,1.898646354675293,-0.27179718017578125,0.0,22.25,0.0,1.8221139907836914,-0.1348257064819336,0.0,23.75,,,,,,,,,,,,,,,,,,,,,,,,,,,,,,,,,,,
0.0,-0.24479711055755615,2.7803120613098145,-0.01085631363093853,-0.22345513105392456,-0.4629955291748047,-0.02516721561551094,-0.17091910541057587,0.0451006218791008,0.044717393815517426,0.0,1.7584562301635742,-1.5420913696289062,-0.5752531439065933,12.0,0.0,1.749873161315918,-1.3042688369750977,0.3835020959377289,12.75,0.0,1.6150474548339844,-0.3072023391723633,-0.5752531439065933,14.75,0.0,1.760244369506836,-0.3293752670288086,-0.3835020959377289,15.75,0.0,1.8678903579711914,-0.3826618194580078,-0.3835020959377289,13.0,0.0,1.898646354675293,-0.24247169494628906,0.0,21.75,0.0,1.8124580383300781,-0.15234947204589844,0.0,23.25,,,,,,,,,,,,,,,,,,,,,,,,,
0.0,-0.35060134530067444,2.7122602462768555,-0.007995449006557465,-0.3894313871860504,-0.5452329516410828,-0.00929602887481451,-0.3031482696533203,-0.09225297719240189,0.0557997040450573,0.0,1.9751787185668945,-1.577138900756836,-0.19175104796886444,12.75,0.0,1.7437934875488281,-0.4248619079589844,-0.19175104796886444,18.5,0.0,1.8260478973388672,-0.44023990631103516,-0.19175104796886444,15.5,0.0,1.6057491302490234,-0.2771615982055664,-0.7670041918754578,17.25,0.0,1.4719963073730469,-0.1659393310546875,-0.7670041918754578,18.0,0.0,1.9000768661499023,-0.31256675720214844,0.0,21.0,,,,,,,,,,,,,,,,,,,,,,,,,,,,,,
0.0,-0.3791773319244385,2.6547470092773438,-0.007187494542449713,-0.3945584297180176,-0.5624263882637024,-0.0007225137669593096,-0.2782122492790222,-0.1043911799788475,0.058510344475507736,0.0,1.5120506286621094,-0.44417381286621094,-0.5752531439065933,14.75,0.0,1.694798469543457,-0.492095947265625,-0.19175104796886444,13.75,0.0,1.2320280075073242,0.6072521209716797,-0.3835020959377289,18.25,0.0,1.2423992156982422,0.6233453750610352,-0.3835020959377289,19.0,0.0,1.319289207458496,0.6862878799438477,-0.3835020959377289,12.25,,,,,,,,,,,,,,,,,,,,,,,,,,,,,,,,,,,
0.0,-0.34610337018966675,2.608931303024292,-0.004778383299708366,-0.2839927077293396,-0.5385324954986572,0.009142158553004265,-0.1558450162410736,-0.055457428097724915,0.06183745339512825,0.0,1.522064208984375,-0.5035400390625,-0.3835020959377289,12.5,0.0,1.2488365173339844,0.2961158752441406,-0.3835020959377289,15.75,0.0,1.267075538635254,0.3529787063598633,-0.3835020959377289,22.0,0.0,1.2688636779785156,0.4048347473144531,-0.3835020959377289,20.5,0.0,1.8078088760375977,-0.31578540802001953,0.0,21.5,0.0,1.8875598907470703,-0.41162967681884766,0.0,21.0,0.0,1.2627840042114258,0.4774332046508789,0.0,17.5,,,,,,,,,,,,,,,,,,,,,,,,,
0.0,-0.37528184056282043,2.5548007488250732,-0.003554980270564556,-0.2995772063732147,-0.5440782308578491,0.01532590389251709,0.0,0.0,0.0,0.0,1.724839210510254,-1.3926029205322266,-0.19175104796886444,18.75,0.0,1.7387866973876953,-1.4194250106811523,-0.19175104796886444,16.5,0.0,1.7223358154296875,-1.090407371520996,-0.19175104796886444,13.75,0.0,1.4297962188720703,-0.6802082061767578,-0.3835020959377289,16.5,0.0,1.626133918762207,-0.7202625274658203,-0.3835020959377289,15.5,0.0,0.9115934371948242,-0.08618831634521484,-0.5752531439065933,14.25,0.0,1.210927963256836,-0.10585784912109375,-0.5752531439065933,26.75,0.0,1.2202262878417969,-0.09655952453613281,-0.5752531439065933,28.75,0.0,1.2763738632202148,-0.07152557373046875,-0.5752531439065933,22.75,0.0,1.8879175186157227,-0.4488229751586914,0.0,20.25,0.0,1.7859935760498047,-0.37157535552978516,0.0,21.0,,,,,
0.0,-0.4052395522594452,2.5003929138183594,-0.0020223897881805897,-0.2995772063732147,-0.5440782308578491,0.01532590389251709,0.0,0.0,0.0,0.0,1.6690492630004883,-1.3890266418457031,-0.7670041918754578,15.0,0.0,1.4251470565795898,-0.5897283554077148,-0.19175104796886444,20.0,0.0,1.5639066696166992,-0.6784200668334961,-0.19175104796886444,17.25,0.0,1.2710094451904297,-0.2968311309814453,-0.19175104796886444,23.5,0.0,0.8940696716308594,-0.19669532775878906,-0.3835020959377289,18.5,0.0,1.1605024337768555,-0.22995471954345703,-0.3835020959377289,30.0,0.0,1.179814338684082,-0.21314620971679688,-0.5752531439065933,30.5,0.0,1.912236213684082,-1.5528202056884766,0.0,12.25,0.0,1.5435218811035156,-0.5117654800415039,0.0,20.25,0.0,1.8793344497680664,-0.4388093948364258,0.0,19.5,,,,,,,,,,
0.0,-0.43519726395606995,2.4459850788116455,-0.0004897994222119451,-0.2995772063732147,-0.5440782308578491,0.01532590389251709,0.0,0.0,0.0,0.0,0.9119510650634766,-0.07939338684082031,-0.3835020959377289,24.75,0.0,1.1529922485351562,-0.04076957702636719,-0.3835020959377289,32.0,0.0,1.1733770370483398,0.051140785217285156,-0.19175104796886444,32.5,0.0,1.2195110321044922,0.1888275146484375,-0.19175104796886444,24.5,0.0,1.531362533569336,-0.5282163619995117,0.0,20.0,,,,,,,,,,,,,,,,,,,,,,,,,,,,,,,,,,,
0.0,-0.4651549756526947,2.3915772438049316,0.0010427909437566996,-0.2995772063732147,-0.5440782308578491,0.01532590389251709,0.0,0.0,0.0,0.0,1.2263059616088867,-0.4316568374633789,-0.19175104796886444,17.0,0.0,1.1415481567382812,-0.22494792938232422,-0.19175104796886444,23.0,0.0,0.9098052978515625,-0.10192394256591797,-0.19175104796886444,19.75,0.0,1.1047124862670898,-0.14412403106689453,-0.19175104796886444,25.0,0.0,1.5041828155517578,-0.5632638931274414,0.0,19.5,0.0,1.635432243347168,-0.6265640258789062,0.0,17.5,0.0,1.1533498764038086,-0.1112222671508789,0.0,25.75,0.0,0.9119510650634766,-0.08118152618408203,0.0,17.0,0.0,1.2649297714233398,0.3107786178588867,0.0,21.5,,,,,,,,,,,,,,,
0.0,-0.49511268734931946,2.3371694087982178,0.0025753811933100224,-0.2995772063732147,-0.5440782308578491,0.01532590389251709,0.0,0.0,0.0,0.0,1.5617609024047852,-1.3636350631713867,-0.3835020959377289,23.5,0.0,1.5524625778198242,-1.0793209075927734,-0.19175104796886444,17.25,0.0,1.453399658203125,-0.6490945816040039,-0.19175104796886444,17.25,0.0,0.9130239486694336,0.06866455078125,-0.19175104796886444,17.25,0.0,1.2531280517578125,0.06222724914550781,-0.19175104796886444,21.0,0.0,1.1655092239379883,0.14519691467285156,-0.19175104796886444,26.5,0.0,1.1773109436035156,0.14984607696533203,-0.19175104796886444,27.75,0.0,1.4777183532714844,-0.606536865234375,0.0,18.5,0.0,1.6275644302368164,-0.6433725357055664,0.0,16.25,,,,,,,,,,,,,,,
0.0,-0.5250704288482666,2.282761573791504,0.004107971675693989,-0.2995772063732147,-0.5440782308578491,0.01532590389251709,0.0,0.0,0.0,0.0,0.9123086929321289,0.07724761962890625,-0.19175104796886444,21.0,0.0,1.1472702026367188,0.2256631851196289,-0.19175104796886444,29.5,0.0,1.145482063293457,0.28145313262939453,-0.19175104796886444,29.5,0.0,1.1858940124511719,0.3418922424316406,-0.19175104796886444,20.0,0.0,1.4684200286865234,-0.6215572357177734,0.0,18.75,,,,,,,,,,,,,,,,,,,,,,,,,,,,,,,,,,,
0.0,-0.5550281405448914,2.22835373878479,0.005640562158077955,-0.2995772063732147,-0.5440782308578491,0.01532590389251709,0.0,0.0,0.0,0.0,1.3478994369506836,-1.1883974075317383,-0.19175104796886444,13.0,0.0,0.91552734375,-0.008940696716308594,-0.19175104796886444,24.5,0.0,1.0514259338378906,0.041484832763671875,-0.19175104796886444,26.5,0.0,1.0957717895507812,0.1380443572998047,-0.19175104796886444,20.75,,,,,,,,,,,,,,,,,,,,,,,,,,,,,,,,,,,,,,,,
0.0,-0.3174569308757782,2.2287232875823975,0.0030511622317135334,0.035355448722839355,-0.4593369662761688,0.010285727679729462,0.2048710584640503,0.06977977603673935,-0.002801021095365286,0.0,0.9148120880126953,-0.03325939178466797,-0.19175104796886444,26.5,0.0,1.0714530944824219,-0.02110004425048828,-0.19175104796886444,29.0,0.0,1.1075735092163086,0.0171661376953125,-0.19175104796886444,24.0,,,,,,,,,,,,,,,,,,,,,,,,,,,,,,,,,,,,,,,,,,,,,
0.0,-0.13582544028759003,2.2310702800750732,0.0024743634276092052,0.26769164204597473,-0.3706817924976349,0.00815563928335905,0.3298172950744629,0.1440790295600891,-0.003784097032621503,0.0,1.181960105895996,-0.5950927734375,0.19175104796886444,14.5,0.0,1.122593879699707,-0.40984153747558594,-0.19175104796886444,20.0,0.0,1.0714530944824219,-0.1748800277709961,-0.19175104796886444,21.5,0.0,0.9123086929321289,-0.07653236389160156,-0.19175104796886444,19.25,0.0,1.2699365615844727,-0.09906291961669922,0.0,20.0,,,,,,,,,,,,,,,,,,,,,,,,,,,,,,,,,,,
0.0,-0.06346331536769867,2.18499493598938,0.0020695016719400883,0.3527372479438782,-0.3675824701786041,0.006496410816907883,0.36112266778945923,0.13667505979537964,-0.004425019025802612,0.0,0.9119510650634766,-0.080108642578125,-0.19175104796886444,29.0,0.0,1.0339021682739258,-0.059723854064941406,-0.19175104796886444,30.25,0.0,1.0771751403808594,0.01895427703857422,-0.19175104796886444,23.25,,,,,,,,,,,,,,,,,,,,,,,,,,,,,,,,,,,,,,,,,,,,,
0.0,0.0009627882391214371,2.137763023376465,0.0018238606862723827,0.4210206866264343,-0.36757469177246094,0.0051557756960392,0.3807666599750519,0.12709258496761322,-0.004861378576606512,0.0,1.0010004043579102,-0.4112720489501953,-0.19175104796886444,17.0,0.0,0.9520053863525391,-0.2835988998413086,-0.19175104796886444,26.25,0.0,0.893712043762207,-0.1977682113647461,-0.19175104796886444,27.25,0.0,1.2080669403076172,0.32401084899902344,-0.19175104796886444,14.5,0.0,1.0914802551269531,0.41091442108154297,-0.19175104796886444,24.25,,,,,,,,,,,,,,,,,,,,,,,,,,,,,,,,,,,
0.0,-0.011834591627120972,2.0807178020477295,0.0012527754297479987,0.39153820276260376,-0.37770307064056396,0.00361890927888453,0.33830133080482483,0.11415955424308777,-0.005357834044843912,0.0,0.8740425109863281,-0.27251243591308594,-0.19175104796886444,12.0,0.0,0.9527206420898438,-0.3075599670410156,-0.19175104796886444,12.25,0.0,1.2177228927612305,-0.43952465057373047,0.0,14.75,0.0,1.1501312255859375,0.14519691467285156,0.0,25.75,,,,,,,,,,,,,,,,,,,,,,,,,,,,,,,,,,,,,,,,
0.0,0.05087089166045189,2.0242221355438232,0.0009932706598192453,0.4523907005786896,-0.38694119453430176,0.0025115462485700846,0.3562678098678589,0.10171449929475784,-0.0056235771626234055,0.0,0.91552734375,-0.0057220458984375,0.19175104796886444,23.0,0.0,1.07574462890625,0.04398822784423828,0.19175104796886444,26.25,0.0,1.1125802993774414,0.102996826171875,0.19175104796886444,22.0,0.0,0.9076595306396484,-0.12087821960449219,0.0,28.5,0.0,1.1254549026489258,0.030755996704101562,0.0,24.75,0.0,1.2173652648925781,0.2338886260986328,0.0,16.0,,,,,,,,,,,,,,,,,,,,,,,,,,,,,,
0.0,0.13501285016536713,1.952976942062378,0.0008125650929287076,0.533386766910553,-0.43675753474235535,0.0015088188229128718,0.38623958826065063,0.04008219763636589,-0.005841772072017193,0.0,1.0324716567993164,-0.46885013580322266,0.19175104796886444,19.25,0.0,0.9913444519042969,0.4227161407470703,0.19175104796886444,21.75,,,,,,,,,,,,,,,,,,,,,,,,,,,,,,,,,,,,,,,,,,,,,,,,,,
0.0,0.1462523341178894,1.8817626237869263,0.0005638515576720238,0.5026664733886719,-0.4863574504852295,0.0005130936624482274,0.3302519917488098,-0.018104244023561478,-0.006047787144780159,0.0,1.1250972747802734,0.23245811462402344,0.19175104796886444,23.25,0.0,1.0246038436889648,-0.17201900482177734,0.0,31.0,0.0,0.9058713912963867,-0.13267993927001953,0.0,29.75,,,,,,,,,,,,,,,,,,,,,,,,,,,,,,,,,,,,,,,,,,,,,
0.0,0.1438094526529312,1.821618914604187,0.00038533026236109436,0.4466707408428192,-0.5133820176124573,-0.0003169051487930119,0.2573627531528473,-0.04859885200858116,-0.006161975674331188,0.0,0.904083251953125,-0.14519691467285156,0.0,29.0,,,,,,,,,,,,,,,,,,,,,,,,,,,,,,,,,,,,,,,,,,,,,,,,,,,,,,,
0.0,0.18976335227489471,1.7700377702713013,0.0003228298737667501,0.23620350658893585,-0.2591209411621094,-0.00046655136975459754,0.0,0.0,0.0,0.0,1.1687278747558594,0.29146671295166016,0.3835020959377289,13.5,0.0,0.9037256240844727,-0.14591217041015625,0.0,28.5,,,,,,,,,,,,,,,,,,,,,,,,,,,,,,,,,,,,,,,,,,,,,,,,,,
0.0,-0.0451197624206543,1.7765345573425293,0.0001521625672467053,-0.22983883321285248,-0.2764563262462616,-0.0006762312259525061,-0.390379935503006,-0.0671260729432106,-0.00011231708049308509,0.0,1.0464191436767578,-0.29969215393066406,0.0,18.5,0.0,0.9037256240844727,-0.1462697982788086,0.0,25.25,0.0,1.0063648223876953,-0.1995563507080078,0.0,25.75,0.0,1.0524988174438477,0.4137754440307617,0.0,22.5,,,,,,,,,,,,,,,,,,,,,,,,,,,,,,,,,,,,,,,,
0.0,-0.07801634818315506,1.7355632781982422,4.0527294913772494e-05,-0.2779422104358673,-0.3793275058269501,-0.00083417899440974,-0.39460375905036926,-0.20732083916664124,-0.00019000066095031798,0.0,1.1268854141235352,0.23174285888671875,0.0,18.0,,,,,,,,,,,,,,,,,,,,,,,,,,,,,,,,,,,,,,,,,,,,,,,,,,,,,,,
0.0,-0.1572190821170807,1.7273799180984497,-3.7785055610584095e-05,-0.4135597050189972,-0.39486950635910034,-0.0008827139972709119,-0.47640901803970337,-0.22679376602172852,-0.00020378149929456413,0.0,1.1290311813354492,0.21278858184814453,0.0,17.5,,,,,,,,,,,,,,,,,,,,,,,,,,,,,,,,,,,,,,,,,,,,,,,,,,,,,,,
0.0,-0.20382128655910492,1.7104376554489136,-0.00010552752064540982,-0.46591630578041077,-0.4080846905708313,-0.0008971324423328042,-0.4796355962753296,-0.23104168474674225,-0.00019761096336878836,0.0,1.5892982482910156,-1.2112855911254883,0.5752531439065933,16.5,0.0,1.5953779220581055,-0.9856224060058594,0.5752531439065933,17.75,,,,,,,,,,,,,,,,,,,,,,,,,,,,,,,,,,,,,,,,,,,,,,,,,,
0.0,-0.33175361156463623,1.687631368637085,-0.00014644846669398248,-0.6755068302154541,-0.41922545433044434,-0.0008603915339335799,-0.6204291582107544,-0.22585566341876984,-0.00016318520647473633,,,,,,,,,,,,,,,,,,,,,,,,,,,,,,,,,,,,,,,,,,,,,,,,,,,,,,,,,,,,
0.0,-0.4037140905857086,1.6512824296951294,-0.0001652343780733645,-0.7277560830116272,-0.4822958707809448,-0.0007992543396539986,-0.6024705171585083,-0.2984544038772583,-0.00011179059220012277,,,,,,,,,,,,,,,,,,,,,,,,,,,,,,,,,,,,,,,,,,,,,,,,,,,,,,,,,,,,
0.0,-0.4723338484764099,1.5987825393676758,-0.00020993035286664963,-0.7705247402191162,-0.5235866904258728,-0.0007605988648720086,-0.5845354199409485,-0.3161686360836029,-8.199442527256906e-05,0.0,1.8961429595947266,-1.4780759811401367,0.7670041918754578,13.25,,,,,,,,,,,,,,,,,,,,,,,,,,,,,,,,,,,,,,,,,,,,,,,,,,,,,,,
0.0,-0.5438806414604187,1.5429739952087402,-0.00025964787346310914,-0.8106943368911743,-0.5610849261283875,-0.0007306880434043705,-0.5669084787368774,-0.32567304372787476,-5.96398240304552e-05,,,,,,,,,,,,,,,,,,,,,,,,,,,,,,,,,,,,,,,,,,,,,,,,,,,,,,,,,,,,
0.0,-0.5158848166465759,1.492412805557251,-0.00015403953148052096,-0.648949384689331,-0.5933211445808411,-0.00048459795652888715,-0.37126290798187256,-0.34881001710891724,8.49823045427911e-05,0.0,1.930832862854004,-1.0578632354736328,0.3835020959377289,14.0,,,,,,,,,,,,,,,,,,,,,,,,,,,,,,,,,,,,,,,,,,,,,,,,,,,,,,,
0.0,-0.5221868753433228,1.4233895540237427,-0.00012582092313095927,-0.5823806524276733,-0.6049256324768066,-0.00036679377080872655,-0.28705450892448425,-0.3157781660556793,0.00014374396414496005,,,,,,,,,,,,,,,,,,,,,,,,,,,,,,,,,,,,,,,,,,,,,,,,,,,,,,,,,,,,
0.0,-0.43237680196762085,1.4046224355697632,-0.00012142342166043818,-0.35504862666130066,-0.4800299406051636,-0.0002949279441963881,-0.07826004922389984,-0.13123388588428497,0.00016895968292374164,,,,,,,,,,,,,,,,,,,,,,,,,,,,,,,,,,,,,,,,,,,,,,,,,,,,,,,,,,,,
0.0,-0.40821385383605957,1.3586748838424683,-0.0001121444147429429,-0.26735562086105347,-0.42650896310806274,-0.00022517090837936848,-0.00604451447725296,-0.03632088005542755,0.00019578970386646688,,,,,,,,,,,,,,,,,,,,,,,,,,,,,,,,,,,,,,,,,,,,,,,,,,,,,,,,,,,,
0.0,-0.38008421659469604,1.3562202453613281,-8.850956510286778e-05,-0.17207640409469604,-0.33620527386665344,-0.0001422622153768316,0.07340417802333832,0.06967389583587646,0.00023424751998391002,,,,,,,,,,,,,,,,,,,,,,,,,,,,,,,,,,,,,,,,,,,,,,,,,,,,,,,,,,,,
0.0,-0.26904958486557007,1.353683352470398,-7.750464283162728e-05,0.06786324083805084,-0.22181278467178345,-8.714669820619747e-05,0.28353261947631836,0.18544664978981018,0.0002483946445863694,,,,,,,,,,,,,,,,,,,,,,,,,,,,,,,,,,,,,,,,,,,,,,,,,,,,,,,,,,,,
0.0,-0.23157405853271484,1.3219412565231323,-6.466285412898287e-05,0.14713157713413239,-0.19676217436790466,-3.4669687011046335e-05,0.32913002371788025,0.19921530783176422,0.0002634708653204143,,,,,,,,,,,,,,,,,,,,,,,,,,,,,,,,,,,,,,,,,,,,,,,,,,,,,,,,,,,,
0.0,-0.1845748871564865,1.2901573181152344,-5.330848216544837e-05,0.2341686189174652,-0.1788284033536911,9.32203147385735e-06,0.3786742687225342,0.20126652717590332,0.00027247454272583127,,,,,,,,,,,,,,,,,,,,,,,,,,,,,,,,,,,,,,,,,,,,,,,,,,,,,,,,,,,,
0.0,-0.1976589411497116,1.2531503438949585,-3.7454403354786336e-05,0.1998795121908188,-0.17176459729671478,5.532065551960841e-05,0.31143704056739807,0.21024054288864136,0.0002845096169039607,0.0,2.228379249572754,-1.4619827270507812,0.3835020959377289,14.5,0.0,2.2248029708862305,-1.3614892959594727,0.7670041918754578,15.5,,,,,,,,,,,,,,,,,,,,,,,,,,,,,,,,,,,,,,,,,,,,,,,,,,
0.0,-0.14955011010169983,1.221156120300293,-2.3848722776165232e-05,0.27747228741645813,-0.1643495112657547,9.164232324110344e-05,0.3537451922893524,0.19847384095191956,0.00028806502814404666,,,,,,,,,,,,,,,,,,,,,,,,,,,,,,,,,,,,,,,,,,,,,,,,,,,,,,,,,,,,
0.0,-0.10749674588441849,1.1851905584335327,-8.79542585607851e-06,0.33423393964767456,-0.16587042808532715,0.00012532173423096538,0.3734546899795532,0.1813783347606659,0.00029003850067965686,,,,,,,,,,,,,,,,,,,,,,,,,,,,,,,,,,,,,,,,,,,,,,,,,,,,,,,,,,,,
0.0,-0.1190110519528389,1.152065634727478,4.779617029271321e-06,0.29084277153015137,-0.1661953628063202,0.00015346080181188881,0.30309319496154785,0.17235788702964783,0.0002892853517550975,,,,,,,,,,,,,,,,,,,,,,,,,,,,,,,,,,,,,,,,,,,,,,,,,,,,,,,,,,,,
0.0,-0.04265508055686951,1.1539173126220703,1.8572534827399068e-05,0.39789018034935,-0.08333363384008408,0.00017910756287164986,0.3671554625034332,0.2704811692237854,0.00028802838642150164,,,,,,,,,,,,,,,,,,,,,,,,,,,,,,,,,,,,,,,,,,,,,,,,,,,,,,,,,,,,
0.0,0.010855692438781261,1.156538963317871,3.294963244115934e-05,0.45676276087760925,-0.022885646671056747,0.0002019042003666982,0.38736066222190857,0.3203471302986145,0.00028470662073232234,,,,,,,,,,,,,,,,,,,,,,,,,,,,,,,,,,,,,,,,,,,,,,,,,,,,,,,,,,,,
0.0,0.07946612685918808,1.1598392724990845,4.990334127796814e-05,0.5311073660850525,0.02036464773118496,0.0002245137729914859,0.4182277023792267,0.3358629643917084,0.0002811595913954079,0.0,2.5169849395751953,-1.0035037994384766,0.7670041918754578,12.25,,,,,,,,,,,,,,,,,,,,,,,,,,,,,,,,,,,,,,,,,,,,,,,,,,,,,,,
0.0,0.1346680074930191,1.1635550260543823,7.376051507890224e-05,0.2864650785923004,0.026975471526384354,0.00012631487334147096,0.0,0.0,0.0,0.0,2.5316476821899414,-0.9580850601196289,1.1505062878131866,15.75,0.0,1.8153190612792969,1.3797283172607422,0.3835020959377289,12.75,0.0,1.8192529678344727,1.4466047286987305,0.3835020959377289,13.75,,,,,,,,,,,,,,,,,,,,,,,,,,,,,,,,,,,,,,,,,,,,,
0.0,0.19311340153217316,1.1816250085830688,7.625381840625778e-05,0.33724725246429443,0.06433988362550735,0.00011444116535130888,0.04413086175918579,0.04799264296889305,-6.836508873675484e-06,0.0,2.697587013244629,-1.142263412475586,0.3835020959377289,16.0,,,,,,,,,,,,,,,,,,,,,,,,,,,,,,,,,,,,,,,,,,,,,,,,,,,,,,,
0.0,0.2270587831735611,1.1882989406585693,8.766374958213419e-05,0.0,0.0,0.0,0.0,0.0,0.0,,,,,,,,,,,,,,,,,,,,,,,,,,,,,,,,,,,,,,,,,,,,,,,,,,,,,,,,,,,,
0.0,0.2270587831735611,1.1882989406585693,8.766374958213419e-05,0.0,0.0,0.0,0.0,0.0,0.0,0.0,2.548098564147949,-0.32329559326171875,0.5752531439065933,14.0,,,,,,,,,,,,,,,,,,,,,,,,,,,,,,,,,,,,,,,,,,,,,,,,,,,,,,,
0.0,0.2270587831735611,1.1882989406585693,8.766374958213419e-05,0.0,0.0,0.0,0.0,0.0,0.0,0.0,2.2634267807006836,1.3167858123779297,0.5752531439065933,16.0,0.0,2.1092891693115234,1.4791488647460938,0.5752531439065933,18.75,0.0,1.9894838333129883,1.5571117401123047,0.5752531439065933,14.5,0.0,2.113223075866699,1.6300678253173828,0.0,14.25,,,,,,,,,,,,,,,,,,,,,,,,,,,,,,,,,,,,,,,,
0.0,0.2270587831735611,1.1882989406585693,8.766374958213419e-05,0.0,0.0,0.0,0.0,0.0,0.0,0.0,2.924680709838867,-1.1419057846069336,0.3835020959377289,14.25,0.0,2.9772520065307617,-1.2180805206298828,0.3835020959377289,12.25,0.0,2.5734901428222656,0.20778179168701172,0.3835020959377289,13.0,,,,,,,,,,,,,,,,,,,,,,,,,,,,,,,,,,,,,,,,,,,,,
0.0,0.2270587831735611,1.1882989406585693,8.766374958213419e-05,0.0,0.0,0.0,0.0,0.0,0.0,0.0,2.408266067504883,1.3028383255004883,0.19175104796886444,12.25,,,,,,,,,,,,,,,,,,,,,,,,,,,,,,,,,,,,,,,,,,,,,,,,,,,,,,,
0.0,0.2270587831735611,1.1882989406585693,8.766374958213419e-05,0.0,0.0,0.0,0.0,0.0,0.0,0.0,2.8731822967529297,-1.4137029647827148,0.0,12.0,,,,,,,,,,,,,,,,,,,,,,,,,,,,,,,,,,,,,,,,,,,,,,,,,,,,,,,
0.0,0.2270587831735611,1.1882989406585693,8.766374958213419e-05,0.0,0.0,0.0,0.0,0.0,0.0,0.0,2.8874874114990234,-1.3800859451293945,0.0,13.25,0.0,2.83205509185791,-1.2756586074829102,0.0,16.0,,,,,,,,,,,,,,,,,,,,,,,,,,,,,,,,,,,,,,,,,,,,,,,,,,
0.0,0.2270587831735611,1.1882989406585693,8.766374958213419e-05,0.0,0.0,0.0,0.0,0.0,0.0,0.0,2.8499364852905273,-1.5610456466674805,0.0,14.75,0.0,2.843499183654785,-1.3757944107055664,0.0,15.75,,,,,,,,,,,,,,,,,,,,,,,,,,,,,,,,,,,,,,,,,,,,,,,,,,
0.0,0.2270587831735611,1.1882989406585693,8.766374958213419e-05,0.0,0.0,0.0,0.0,0.0,0.0,0.0,3.090977668762207,-1.4183521270751953,-0.3835020959377289,13.25,0.0,3.0884742736816406,-1.2853145599365234,-0.3835020959377289,13.75,0.0,2.9593706130981445,-1.421213150024414,0.0,15.75,0.0,3.026247024536133,-1.4204978942871094,0.0,12.0,0.0,2.9164552688598633,-1.2563467025756836,0.0,14.75,0.0,2.1761655807495117,1.4280080795288086,0.0,18.0,0.0,2.214789390563965,1.461625099182129,0.0,16.75,,,,,,,,,,,,,,,,,,,,,,,,,
0.0,0.2270587831735611,1.1882989406585693,8.766374958213419e-05,0.0,0.0,0.0,0.0,0.0,0.0,0.0,2.832770347595215,-0.3190040588378906,0.19175104796886444,12.75,0.0,2.9611587524414062,-1.4219284057617188,0.0,15.5,0.0,3.0248165130615234,-1.4390945434570312,0.0,12.0,0.0,2.8967857360839844,-1.271367073059082,0.0,14.5,,,,,,,,,,,,,,,,,,,,,,,,,,,,,,,,,,,,,,,,
0.0,0.2270587831735611,1.1882989406585693,8.766374958213419e-05,0.0,0.0,0.0,0.0,0.0,0.0,0.0,2.8241872787475586,-0.21922588348388672,0.19175104796886444,12.75,0.0,2.8399229049682617,-0.18739700317382812,0.0,14.5,,,,,,,,,,,,,,,,,,,,,,,,,,,,,,,,,,,,,,,,,,,,,,,,,,
0.0,0.2270587831735611,1.1882989406585693,8.766374958213419e-05,0.0,0.0,0.0,0.0,0.0,0.0,0.0,3.1943321228027344,-0.6483793258666992,-0.19175104796886444,12.5,0.0,3.1120777130126953,-1.3260841369628906,0.0,13.5,0.0,3.002285957336426,-0.9992122650146484,0.0,14.5,,,,,,,,,,,,,,,,,,,,,,,,,,,,,,,,,,,,,,,,,,,,,
0.0,0.2270587831735611,1.1882989406585693,8.766374958213419e-05,0.0,0.0,0.0,0.0,0.0,0.0,0.0,2.72977352142334,0.0,-0.19175104796886444,22.75,0.0,2.754092216491699,0.011801719665527344,-0.19175104796886444,27.25,0.0,2.7855634689331055,0.014662742614746094,-0.19175104796886444,23.25,0.0,2.715468406677246,-0.05435943603515625,0.0,19.75,0.0,2.7562379837036133,-0.06008148193359375,0.0,24.0,0.0,2.7959346771240234,-0.042557716369628906,0.0,20.5,,,,,,,,,,,,,,,,,,,,,,,,,,,,,,
0.0,0.2270587831735611,1.1882989406585693,8.766374958213419e-05,0.0,0.0,0.0,0.0,0.0,0.0,0.0,2.9407739639282227,-1.4365911483764648,-0.19175104796886444,13.5,0.0,2.695798873901367,0.037550926208496094,-0.19175104796886444,17.5,0.0,2.7219057083129883,-0.01823902130126953,-0.19175104796886444,20.25,0.0,2.8030872344970703,-0.07367134094238281,-0.19175104796886444,15.0,0.0,2.719759941101074,-0.05257129669189453,0.0,21.5,0.0,2.7501583099365234,-0.057220458984375,0.0,25.5,0.0,2.791285514831543,-0.058650970458984375,0.0,21.5,,,,,,,,,,,,,,,,,,,,,,,,,
0.0,0.2270587831735611,1.1882989406585693,8.766374958213419e-05,0.0,0.0,0.0,0.0,0.0,0.0,0.0,2.955794334411621,-1.2699365615844727,-0.19175104796886444,12.75,0.0,2.9278993606567383,-0.8007287979125977,-0.19175104796886444,15.0,0.0,2.8063058853149414,-0.4763603210449219,-0.19175104796886444,18.25,0.0,2.7086734771728516,-0.10943412780761719,-0.19175104796886444,18.25,0.0,2.7344226837158203,-0.2027750015258789,-0.19175104796886444,21.5,0.0,2.790212631225586,-0.09942054748535156,0.0,22.75,0.0,2.7201175689697266,-0.028967857360839844,0.0,23.0,0.0,2.7447938919067383,-0.05936622619628906,0.0,27.0,,,,,,,,,,,,,,,,,,,,
0.0,0.2270587831735611,1.1882989406585693,8.766374958213419e-05,0.0,0.0,0.0,0.0,0.0,0.0,0.0,2.6546716690063477,-0.4824399948120117,-0.3835020959377289,13.5,0.0,2.7179718017578125,-0.44524669647216797,-0.3835020959377289,17.25,0.0,2.820253372192383,-0.31006336212158203,-0.3835020959377289,14.0,0.0,2.795577049255371,-0.12445449829101562,0.0,22.75,0.0,2.7208328247070312,-0.03218650817871094,0.0,23.0,0.0,2.7469396591186523,-0.07224082946777344,0.0,26.75,,,,,,,,,,,,,,,,,,,,,,,,,,,,,,
0.0,0.2270587831735611,1.1882989406585693,8.766374958213419e-05,0.0,0.0,0.0,0.0,0.0,0.0,0.0,2.8939247131347656,-1.050710678100586,-0.19175104796886444,14.0,0.0,2.846360206604004,-0.5625486373901367,-0.3835020959377289,12.75,0.0,2.628922462463379,0.2084970474243164,-0.5752531439065933,16.75,0.0,2.685427665710449,0.16987323760986328,-0.5752531439065933,16.5,0.0,2.8055906295776367,-0.12087821960449219,0.0,22.75,0.0,2.751946449279785,-0.06973743438720703,0.0,26.5,,,,,,,,,,,,,,,,,,,,,,,,,,,,,,
0.0,0.2270587831735611,1.1882989406585693,8.766374958213419e-05,0.0,0.0,0.0,0.0,0.0,0.0,0.0,2.751588821411133,-0.39017200469970703,-0.3835020959377289,12.5,0.0,2.543807029724121,-0.1062154769897461,-0.5752531439065933,18.0,0.0,2.5860071182250977,-0.15592575073242188,-0.5752531439065933,23.25,0.0,2.6232004165649414,-0.21922588348388672,-0.5752531439065933,20.75,0.0,2.7430057525634766,-0.07367134094238281,0.0,27.0,,,,,,,,,,,,,,,,,,,,,,,,,,,,,,,,,,,
0.0,0.2270587831735611,1.1882989406585693,8.766374958213419e-05,0.0,0.0,0.0,0.0,0.0,0.0,0.0,2.408623695373535,0.04863739013671875,-0.5752531439065933,13.5,0.0,2.4797916412353516,0.07045269012451172,-0.5752531439065933,23.0,0.0,2.5724172592163086,0.06222724914550781,-0.5752531439065933,17.0,0.0,2.4994611740112305,0.09369850158691406,-0.5752531439065933,24.25,0.0,3.054499626159668,-1.159071922302246,0.0,12.5,0.0,2.8034448623657227,-0.14913082122802734,0.0,22.75,0.0,2.656102180480957,0.012516975402832031,0.0,23.75,0.0,2.735137939453125,-0.0661611557006836,0.0,26.25,,,,,,,,,,,,,,,,,,,,
0.0,0.2270587831735611,1.1882989406585693,8.766374958213419e-05,0.0,0.0,0.0,0.0,0.0,0.0,0.0,2.8377771377563477,-1.2853145599365234,-0.19175104796886444,13.0,0.0,2.454042434692383,-0.09906291961669922,-0.3835020959377289,18.0,0.0,2.5066137313842773,-0.011444091796875,-0.3835020959377289,18.0,0.0,2.624630928039551,0.012874603271484375,-0.3835020959377289,12.25,0.0,2.8023719787597656,-0.14734268188476562,0.0,22.5,0.0,2.6525259017944336,-0.004291534423828125,0.0,23.75,0.0,2.7333498001098633,-0.07545948028564453,0.0,26.25,,,,,,,,,,,,,,,,,,,,,,,,,
0.0,0.2270587831735611,1.1882989406585693,8.766374958213419e-05,0.0,0.0,0.0,0.0,0.0,0.0,0.0,2.8542280197143555,-1.3099908828735352,-0.19175104796886444,13.75,0.0,2.9200315475463867,-1.3418197631835938,-0.19175104796886444,12.75,0.0,2.352118492126465,-0.24497509002685547,-0.3835020959377289,22.25,0.0,2.407193183898926,-0.15556812286376953,-0.5752531439065933,27.25,0.0,2.4672746658325195,0.014662742614746094,-0.3835020959377289,25.5,0.0,2.5609731674194336,0.16701221466064453,-0.3835020959377289,18.0,,,,,,,,,,,,,,,,,,,,,,,,,,,,,,
0.0,0.2270587831735611,1.1882989406585693,8.766374958213419e-05,0.0,0.0,0.0,0.0,0.0,0.0,0.0,2.7930736541748047,-1.2999773025512695,-0.19175104796886444,14.5,0.0,2.751946449279785,-1.1848211288452148,-0.19175104796886444,13.75,0.0,2.2830963134765625,-0.3458261489868164,-0.3835020959377289,16.0,0.0,2.2977590560913086,-0.26857852935791016,-0.3835020959377289,17.5,0.0,2.8635263442993164,-1.0660886764526367,0.0,14.75,0.0,2.8563737869262695,-1.0635852813720703,0.0,14.25,0.0,2.3260116577148438,-0.22494792938232422,0.0,14.5,,,,,,,,,,,,,,,,,,,,,,,,,
0.0,0.2270587831735611,1.1882989406585693,8.766374958213419e-05,0.0,0.0,0.0,0.0,0.0,0.0,0.0,2.4068355560302734,-0.4563331604003906,-0.19175104796886444,14.0,0.0,2.28273868560791,-0.30362606048583984,-0.19175104796886444,15.25,0.0,2.3267269134521484,-0.3587007522583008,-0.19175104796886444,17.0,0.0,2.84421443939209,-1.175522804260254,0.0,13.5,0.0,2.7970075607299805,-0.8929967880249023,0.0,16.0,0.0,2.3217201232910156,-0.24497509002685547,0.0,15.0,,,,,,,,,,,,,,,,,,,,,,,,,,,,,,
0.0,0.2270587831735611,1.1882989406585693,8.766374958213419e-05,0.0,0.0,0.0,0.0,0.0,0.0,0.0,2.7687549591064453,-1.1311769485473633,-0.19175104796886444,12.5,0.0,2.843141555786133,-1.166224479675293,-0.19175104796886444,12.75,0.0,2.283453941345215,-0.2052783966064453,-0.19175104796886444,18.0,0.0,2.3256540298461914,-0.16880035400390625,-0.19175104796886444,19.0,0.0,2.441883087158203,-0.12052059173583984,-0.19175104796886444,13.75,0.0,2.8170347213745117,-1.2774467468261719,0.0,16.5,0.0,2.8831958770751953,-1.3153553009033203,0.0,13.0,0.0,2.744436264038086,-1.1429786682128906,0.0,16.0,0.0,2.3038387298583984,-0.22745132446289062,0.0,20.25,,,,,,,,,,,,,,,
0.0,0.2270587831735611,1.1882989406585693,8.766374958213419e-05,0.0,0.0,0.0,0.0,0.0,0.0,0.0,2.7011632919311523,-1.3715028762817383,-0.5752531439065933,13.0,0.0,2.6993751525878906,-1.1619329452514648,-0.5752531439065933,14.5,0.0,2.6199817657470703,-0.7048845291137695,-0.19175104796886444,13.0,0.0,2.3092031478881836,-0.2878904342651367,0.19175104796886444,17.0,0.0,2.3560523986816406,-0.2911090850830078,-0.19175104796886444,19.75,0.0,2.4465322494506836,-0.37086009979248047,-0.19175104796886444,16.5,0.0,2.7490854263305664,-1.1494159698486328,0.0,16.5,0.0,2.819180488586426,-1.2456178665161133,0.0,15.75,0.0,2.3131370544433594,-0.23281574249267578,0.0,21.0,,,,,,,,,,,,,,,
0.0,0.2270587831735611,1.1882989406585693,8.766374958213419e-05,0.0,0.0,0.0,0.0,0.0,0.0,0.0,2.6439428329467773,-1.179814338684082,-0.19175104796886444,13.5,0.0,2.621769905090332,-0.7835626602172852,-0.5752531439065933,14.25,0.0,2.4422407150268555,0.3815889358520508,-0.19175104796886444,20.0,0.0,2.4454593658447266,0.42450428009033203,-0.19175104796886444,20.5,0.0,2.8145313262939453,-1.2398958206176758,0.0,17.0,0.0,2.3288726806640625,-0.19598007202148438,0.0,20.75,0.0,2.4079084396362305,-0.031828880310058594,0.0,24.25,,,,,,,,,,,,,,,,,,,,,,,,,
0.0,0.2270587831735611,1.1882989406585693,8.766374958213419e-05,0.0,0.0,0.0,0.0,0.0,0.0,0.0,2.767324447631836,-0.8161067962646484,-0.19175104796886444,13.5,0.0,2.701878547668457,-0.1480579376220703,-0.19175104796886444,15.0,0.0,2.322077751159668,0.0711679458618164,-0.19175104796886444,12.5,0.0,2.415776252746582,-0.008225440979003906,-0.19175104796886444,16.25,0.0,2.545952796936035,-0.05650520324707031,-0.19175104796886444,16.0,0.0,2.8198957443237305,-1.226663589477539,0.0,16.5,0.0,2.299189567565918,-0.2696514129638672,0.0,20.75,0.0,2.3964643478393555,-0.030040740966796875,0.0,22.75,0.0,2.4690628051757812,0.40733814239501953,0.0,22.25,,,,,,,,,,,,,,,
0.0,0.2270587831735611,1.1882989406585693,8.766374958213419e-05,0.0,0.0,0.0,0.0,0.0,0.0,0.0,2.5577545166015625,-1.008152961730957,0.19175104796886444,17.0,0.0,2.7598142623901367,-0.8296966552734375,0.19175104796886444,13.25,0.0,2.6693344116210938,-0.04291534423828125,-0.3835020959377289,14.5,0.0,2.281308174133301,0.0826120376586914,-0.19175104796886444,25.25,0.0,2.3145675659179688,0.20778179168701172,-0.19175104796886444,25.25,0.0,2.399325370788574,0.46312808990478516,-0.19175104796886444,20.75,0.0,2.69472599029541,-1.1991262435913086,0.0,17.75,0.0,2.8034448623657227,-1.21307373046875,0.0,16.25,0.0,2.44903564453125,0.1577138900756836,0.0,23.25,,,,,,,,,,,,,,,
0.0,0.2270587831735611,1.1882989406585693,8.766374958213419e-05,0.0,0.0,0.0,0.0,0.0,0.0,0.0,2.359628677368164,-0.00035762786865234375,-0.19175104796886444,18.5,0.0,2.203702926635742,0.0997781753540039,-0.19175104796886444,19.0,0.0,2.2433996200561523,0.09512901306152344,-0.19175104796886444,29.5,0.0,2.2655725479125977,0.08869171142578125,-0.19175104796886444,28.0,0.0,2.830624580383301,-1.1097192764282227,0.0,14.75,0.0,2.770543098449707,-0.972747802734375,0.0,15.5,0.0,2.6586055755615234,-0.6712675094604492,0.0,18.5,,,,,,,,,,,,,,,,,,,,,,,,,
0.0,0.2270587831735611,1.1882989406585693,8.766374958213419e-05,0.0,0.0,0.0,0.0,0.0,0.0,0.0,2.3632049560546875,-0.03325939178466797,-0.19175104796886444,14.5,0.0,2.1876096725463867,0.09369850158691406,-0.19175104796886444,20.0,0.0,2.2090673446655273,0.10836124420166016,-0.19175104796886444,29.25,0.0,2.2330284118652344,0.1119375228881836,-0.19175104796886444,26.0,0.0,2.7680397033691406,-0.8651018142700195,0.0,12.75,0.0,2.210855484008789,0.07867813110351562,0.0,14.25,0.0,2.259492874145508,0.07510185241699219,0.0,30.75,0.0,2.302408218383789,0.12552738189697266,0.0,29.75,0.0,2.3932456970214844,0.32901763916015625,0.0,23.75,,,,,,,,,,,,,,,
0.0,0.2270587831735611,1.1882989406585693,8.766374958213419e-05,0.0,0.0,0.0,0.0,0.0,0.0,0.0,2.189040184020996,0.10764598846435547,-0.19175104796886444,15.75,0.0,2.2373199462890625,0.14448165893554688,-0.19175104796886444,24.5,0.0,2.269864082336426,0.19240379333496094,-0.19175104796886444,23.5,0.0,2.373218536376953,0.17595291137695312,-0.19175104796886444,15.25,0.0,2.754092216491699,-0.9255409240722656,0.0,12.75,0.0,2.680063247680664,-0.4552602767944336,0.0,16.75,0.0,2.203702926635742,0.08690357208251953,0.0,15.0,0.0,2.2498369216918945,0.07474422454833984,0.0,31.0,0.0,2.2974014282226562,0.13446807861328125,0.0,29.75,0.0,2.3903846740722656,0.3654956817626953,0.0,23.75,,,,,,,,,,
0.0,0.2270587831735611,1.1882989406585693,8.766374958213419e-05,0.0,0.0,0.0,0.0,0.0,0.0,0.0,2.7097463607788086,-1.2856721878051758,0.19175104796886444,16.25,0.0,2.7147531509399414,-1.3664960861206055,0.19175104796886444,16.75,0.0,2.164006233215332,0.11980533599853516,-0.19175104796886444,14.5,0.0,2.1718740463256836,0.09584426879882812,-0.19175104796886444,22.0,0.0,2.2083520889282227,0.1462697982788086,-0.19175104796886444,16.0,0.0,2.7211904525756836,-1.101851463317871,0.0,14.0,0.0,2.6793479919433594,-0.34046173095703125,0.0,15.5,0.0,2.239108085632324,0.08726119995117188,0.0,32.0,0.0,2.2788047790527344,0.08404254913330078,0.0,30.0,0.0,2.3889541625976562,0.25856494903564453,0.0,22.0,,,,,,,,,,
0.0,0.2270587831735611,1.1882989406585693,8.766374958213419e-05,0.0,0.0,0.0,0.0,0.0,0.0,0.0,2.673983573913574,-1.397252082824707,0.19175104796886444,15.25,0.0,2.7076005935668945,-1.4022588729858398,0.19175104796886444,16.25,0.0,2.38037109375,-0.0890493392944336,0.19175104796886444,16.75,0.0,2.2612810134887695,0.05328655242919922,0.19175104796886444,24.5,0.0,2.2956132888793945,0.014662742614746094,0.19175104796886444,24.25,0.0,2.198338508605957,0.08189678192138672,0.19175104796886444,13.5,0.0,2.7666091918945312,-0.960230827331543,0.0,12.75,0.0,2.6743412017822266,-0.39267539978027344,0.0,15.0,0.0,2.2777318954467773,0.0947713851928711,0.0,30.25,0.0,2.390742301940918,0.1888275146484375,0.0,21.75,,,,,,,,,,
0.0,0.2270587831735611,1.1882989406585693,8.766374958213419e-05,0.0,0.0,0.0,0.0,0.0,0.0,0.0,2.5484561920166016,-1.6536712646484375,-0.19175104796886444,13.25,0.0,2.5663375854492188,-1.5166997909545898,-0.19175104796886444,13.25,0.0,2.1529197692871094,0.03898143768310547,0.19175104796886444,19.0,0.0,2.1636486053466797,0.020384788513183594,0.19175104796886444,25.5,0.0,2.2623538970947266,0.3286600112915039,0.19175104796886444,20.75,0.0,2.38037109375,0.44739246368408203,0.19175104796886444,17.75,0.0,2.724766731262207,-1.3146400451660156,0.0,14.0,0.0,2.6797056198120117,-1.2066364288330078,0.0,15.5,0.0,2.674698829650879,-0.6072521209716797,0.0,16.75,0.0,2.2748708724975586,0.12874603271484375,0.0,30.25,0.0,2.389669418334961,0.21350383758544922,0.0,21.75,,,,,
0.0,0.2270587831735611,1.1882989406585693,8.766374958213419e-05,0.0,0.0,0.0,0.0,0.0,0.0,0.0,2.686142921447754,-1.239180564880371,0.19175104796886444,15.25,0.0,2.7376413345336914,-1.3064146041870117,0.19175104796886444,13.5,0.0,2.1926164627075195,0.008225440979003906,0.19175104796886444,13.75,0.0,2.2405385971069336,0.03361701965332031,0.19175104796886444,24.0,0.0,2.2684335708618164,0.07045269012451172,0.19175104796886444,22.5,0.0,2.350330352783203,0.31185150146484375,0.19175104796886444,13.75,0.0,2.556324005126953,-1.232743263244629,0.0,17.75,0.0,2.624630928039551,-1.3332366943359375,0.0,17.25,0.0,2.705812454223633,-1.3121366500854492,0.0,13.25,0.0,2.3592710494995117,0.19097328186035156,0.0,21.25,,,,,,,,,,
0.0,0.2270587831735611,1.1882989406585693,8.766374958213419e-05,0.0,0.0,0.0,0.0,0.0,0.0,0.0,2.624988555908203,-1.4251470565795898,0.19175104796886444,18.5,0.0,2.565622329711914,-1.2263059616088867,0.19175104796886444,16.25,0.0,2.60317325592041,-1.3958215713500977,0.19175104796886444,19.5,0.0,2.1990537643432617,-0.036835670471191406,0.3835020959377289,13.0,0.0,2.2548437118530273,-0.008225440979003906,0.3835020959377289,24.75,0.0,2.30562686920166,0.08797645568847656,0.3835020959377289,24.0,0.0,2.391815185546875,0.17845630645751953,0.3835020959377289,17.75,0.0,2.589583396911621,-1.4051198959350586,0.0,19.5,0.0,2.62606143951416,-1.4476776123046875,0.0,15.5,0.0,2.5506019592285156,-1.262068748474121,0.0,17.75,,,,,,,,,,
0.0,0.2270587831735611,1.1882989406585693,8.766374958213419e-05,0.0,0.0,0.0,0.0,0.0,0.0,0.0,2.617478370666504,-1.0485649108886719,-0.19175104796886444,18.5,0.0,2.6750564575195312,-1.1115074157714844,-0.19175104796886444,18.75,0.0,2.7494430541992188,-1.147627830505371,-0.19175104796886444,14.5,0.0,2.31778621673584,-0.2346038818359375,0.19175104796886444,17.5,0.0,2.513766288757324,-0.2682209014892578,0.19175104796886444,13.25,0.0,2.2705793380737305,-0.12731552124023438,0.19175104796886444,17.5,0.0,2.606034278869629,-1.4798641204833984,0.0,15.25,0.0,2.56955623626709,-1.2438297271728516,0.0,17.5,0.0,2.596735954284668,-1.4004707336425781,0.0,17.5,0.0,2.2183656692504883,0.03719329833984375,0.0,32.0,0.0,2.2569894790649414,0.0032186508178710938,0.0,29.0,0.0,2.3674964904785156,0.13375282287597656,0.0,19.5
0.0,0.2270587831735611,1.1882989406585693,8.766374958213419e-05,0.0,0.0,0.0,0.0,0.0,0.0,0.0,2.6493072509765625,-1.2449026107788086,0.19175104796886444,14.5,0.0,2.602815628051758,-1.4827251434326172,0.0,16.5,0.0,2.5670528411865234,-1.2906789779663086,0.0,18.5,0.0,2.601027488708496,-1.3908147811889648,0.0,18.75,0.0,2.1790266036987305,0.06902217864990234,0.0,16.25,0.0,2.2115707397460938,0.04220008850097656,0.0,30.0,0.0,2.2652149200439453,0.1087188720703125,0.0,26.75,0.0,2.373218536376953,0.32150745391845703,0.0,19.25,,,,,,,,,,,,,,,,,,,,
0.0,0.2270587831735611,1.1882989406585693,8.766374958213419e-05,0.0,0.0,0.0,0.0,0.0,0.0,0.0,2.284526824951172,-0.034689903259277344,0.19175104796886444,15.75,0.0,2.325296401977539,-0.0064373016357421875,0.19175104796886444,16.75,0.0,2.6003122329711914,-1.4787912368774414,0.0,17.25,0.0,2.6074647903442383,-1.3750791549682617,0.0,19.5,0.0,2.269864082336426,0.04506111145019531,0.0,27.5,,,,,,,,,,,,,,,,,,,,,,,,,,,,,,,,,,,
0.0,0.2270587831735611,1.1882989406585693,8.766374958213419e-05,0.0,0.0,0.0,0.0,0.0,0.0,0.0,2.5856494903564453,-1.5088319778442383,0.0,18.25,0.0,2.189755439758301,0.04076957702636719,0.0,14.75,0.0,2.2405385971069336,0.03647804260253906,0.0,28.75,0.0,2.283453941345215,0.04971027374267578,0.0,27.25,0.0,2.37429141998291,0.3025531768798828,0.0,19.5,,,,,,,,,,,,,,,,,,,,,,,,,,,,,,,,,,,
0.0,0.2270587831735611,1.1882989406585693,8.766374958213419e-05,0.0,0.0,0.0,0.0,0.0,0.0,0.0,2.6078224182128906,-1.4737844467163086,0.0,17.75,0.0,2.2841691970825195,0.05614757537841797,0.0,25.0,0.0,2.389669418334961,0.4101991653442383,0.0,18.75,,,,,,,,,,,,,,,,,,,,,,,,,,,,,,,,,,,,,,,,,,,,,
0.0,0.2270587831735611,1.1882989406585693,8.766374958213419e-05,0.0,0.0,0.0,0.0,0.0,0.0,0.0,2.25985050201416,0.015020370483398438,0.0,26.75,0.0,2.2934675216674805,0.036835670471191406,0.0,25.5,0.0,2.3871660232543945,0.32901763916015625,0.0,18.25,,,,,,,,,,,,,,,,,,,,,,,,,,,,,,,,,,,,,,,,,,,,,
0.0,0.2270587831735611,1.1882989406585693,8.766374958213419e-05,0.0,0.0,0.0,0.0,0.0,0.0,0.0,2.5348663330078125,-1.2835264205932617,0.0,15.0,,,,,,,,,,,,,,,,,,,,,,,,,,,,,,,,,,,,,,,,,,,,,,,,,,,,,,,
0.0,0.2270587831735611,1.1882989406585693,8.766374958213419e-05,0.0,0.0,0.0,0.0,0.0,0.0,0.0,2.2895336151123047,-0.02288818359375,0.0,20.75,,,,,,,,,,,,,,,,,,,,,,,,,,,,,,,,,,,,,,,,,,,,,,,,,,,,,,,
0.0,0.2270587831735611,1.1882989406585693,8.766374958213419e-05,0.0,0.0,0.0,0.0,0.0,0.0,0.0,2.435445785522461,-0.09083747863769531,0.19175104796886444,14.75,0.0,2.492666244506836,-0.07295608520507812,0.19175104796886444,14.0,0.0,2.6317834854125977,-1.3654232025146484,0.0,14.5,0.0,2.6732683181762695,-1.4301538467407227,0.0,12.75,0.0,2.295255661010742,0.011801719665527344,0.0,19.25,,,,,,,,,,,,,,,,,,,,,,,,,,,,,,,,,,,
0.0,0.2270587831735611,1.1882989406585693,8.766374958213419e-05,0.0,0.0,0.0,0.0,0.0,0.0,,,,,,,,,,,,,,,,,,,,,,,,,,,,,,,,,,,,,,,,,,,,,,,,,,,,,,,,,,,,
0.0,0.2270587831735611,1.1882989406585693,8.766374958213419e-05,0.0,0.0,0.0,0.0,0.0,0.0,,,,,,,,,,,,,,,,,,,,,,,,,,,,,,,,,,,,,,,,,,,,,,,,,,,,,,,,,,,,
0.0,0.2270587831735611,1.1882989406585693,8.766374958213419e-05,0.0,0.0,0.0,0.0,0.0,0.0,0.0,3.669619560241699,-0.9874105453491211,-0.19175104796886444,15.5,0.0,3.5026073455810547,-0.0025033950805664062,-0.5752531439065933,19.0,0.0,3.3899545669555664,0.2599954605102539,-0.5752531439065933,25.5,0.0,3.402829170227051,0.2117156982421875,-0.5752531439065933,26.5,0.0,3.3162832260131836,0.3229379653930664,-0.7670041918754578,15.5,,,,,,,,,,,,,,,,,,,,,,,,,,,,,,,,,,,
0.0,0.2270587831735611,1.1882989406585693,8.766374958213419e-05,0.0,0.0,0.0,0.0,0.0,0.0,0.0,3.3960342407226562,-0.14090538024902344,-0.5752531439065933,19.0,0.0,3.5169124603271484,-0.3114938735961914,-0.7670041918754578,12.25,0.0,3.2826662063598633,-0.04076957702636719,-0.5752531439065933,14.0,0.0,3.349184989929199,-0.044345855712890625,-0.5752531439065933,19.75,,,,,,,,,,,,,,,,,,,,,,,,,,,,,,,,,,,,,,,,
0.0,0.2270587831735611,1.1882989406585693,8.766374958213419e-05,0.0,0.0,0.0,0.0,0.0,0.0,0.0,3.170013427734375,0.6387233734130859,-0.7670041918754578,21.0,0.0,3.1632184982299805,0.7009506225585938,-0.7670041918754578,23.0,0.0,3.237605094909668,0.6097555160522461,-0.7670041918754578,15.75,,,,,,,,,,,,,,,,,,,,,,,,,,,,,,,,,,,,,,,,,,,,,
0.0,0.2270587831735611,1.1882989406585693,8.766374958213419e-05,0.0,0.0,0.0,0.0,0.0,0.0,0.0,3.2976865768432617,0.015377998352050781,-0.19175104796886444,18.75,0.0,3.202199935913086,0.2932548522949219,-0.7670041918754578,26.25,0.0,3.104567527770996,0.43702125549316406,-0.7670041918754578,18.0,0.0,3.1642913818359375,0.3973245620727539,-0.7670041918754578,26.25,,,,,,,,,,,,,,,,,,,,,,,,,,,,,,,,,,,,,,,,
0.0,0.2270587831735611,1.1882989406585693,8.766374958213419e-05,0.0,0.0,0.0,0.0,0.0,0.0,0.0,3.202199935913086,-0.1569986343383789,-0.9587552398443222,18.75,0.0,3.0863285064697266,0.08404254913330078,-0.9587552398443222,15.0,0.0,3.150343894958496,-0.05936622619628906,-0.9587552398443222,20.25,,,,,,,,,,,,,,,,,,,,,,,,,,,,,,,,,,,,,,,,,,,,,
0.0,0.2270587831735611,1.1882989406585693,8.766374958213419e-05,0.0,0.0,0.0,0.0,0.0,0.0,0.0,3.3513307571411133,-0.33545494079589844,-0.19175104796886444,16.25,0.0,3.2182931900024414,-0.03504753112792969,-0.19175104796886444,21.0,0.0,2.931833267211914,0.2778768539428711,-0.7670041918754578,13.0,0.0,3.022313117980957,0.24783611297607422,-0.7670041918754578,21.0,0.0,3.106355667114258,0.15807151794433594,-0.7670041918754578,22.75,0.0,3.1964778900146484,1.761317253112793,-0.7670041918754578,12.75,,,,,,,,,,,,,,,,,,,,,,,,,,,,,,
0.0,0.07174479216337204,2.2680106163024902,0.039608996361494064,-0.00606163265183568,-0.19162152707576752,-0.0033465169835835695,0.0,0.0,0.0,0.0,3.0698776245117188,-0.9087324142456055,-0.3835020959377289,14.25,0.0,2.9790401458740234,-0.3222227096557617,-0.3835020959377289,19.75,0.0,2.916097640991211,-0.14770030975341797,-0.3835020959377289,23.5,0.0,2.8667449951171875,0.015020370483398438,-0.7670041918754578,20.25,,,,,,,,,,,,,,,,,,,,,,,,,,,,,,,,,,,,,,,,
0.0,0.07145542651414871,2.248805046081543,0.03837151452898979,-0.002877288730815053,-0.19205698370933533,-0.01241984497755766,0.0003277665236964822,-4.47112979600206e-05,-0.0009005711763165891,0.0,2.9686689376831055,-1.4255046844482422,-0.7670041918754578,15.25,0.0,3.185391426086426,-1.1916160583496094,-0.5752531439065933,12.25,0.0,2.9697418212890625,-0.5038976669311523,-0.5752531439065933,14.5,0.0,2.8460025787353516,-0.3751516342163086,-0.7670041918754578,20.0,0.0,2.7322769165039062,0.2989768981933594,-0.7670041918754578,21.25,0.0,2.6657581329345703,0.46312808990478516,-0.7670041918754578,18.25,0.0,3.302335739135742,-0.6519556045532227,0.0,15.5,0.0,3.2275915145874023,0.09870529174804688,0.0,22.0,,,,,,,,,,,,,,,,,,,,
0.0,0.07846377789974213,2.229891538619995,0.03388649597764015,0.03438524156808853,-0.19055625796318054,-0.029024392366409302,0.00792183168232441,0.0003819662961177528,-0.00411949073895812,0.0,2.8792619705200195,-0.6802082061767578,-0.3835020959377289,13.75,0.0,2.795577049255371,-0.5013942718505859,-0.3835020959377289,21.0,0.0,2.702951431274414,0.19419193267822266,-0.7670041918754578,23.5,0.0,2.559185028076172,0.2557039260864258,-0.7670041918754578,16.0,0.0,2.6203393936157227,0.3687143325805664,-0.7670041918754578,23.25,0.0,3.306269645690918,-0.5142688751220703,0.0,14.25,0.0,3.220081329345703,0.12767314910888672,0.0,20.0,0.0,2.655029296875,0.31185150146484375,0.0,21.5,,,,,,,,,,,,,,,,,,,,
0.0,0.08692469447851181,2.2101423740386963,0.02680143713951111,0.052572160959243774,-0.19312205910682678,-0.043940093368291855,0.013178540393710136,-0.0015385362785309553,-0.008322883397340775,0.0,2.8363466262817383,-1.1898279190063477,-1.342257335782051,14.0,0.0,3.027677536010742,-1.145482063293457,-0.5752531439065933,12.0,0.0,2.7658939361572266,-0.6297826766967773,-0.5752531439065933,17.75,0.0,2.753734588623047,-0.6269216537475586,-0.5752531439065933,17.5,0.0,2.6657581329345703,-0.2707242965698242,-0.5752531439065933,22.25,0.0,2.515554428100586,0.12123584747314453,-0.7670041918754578,21.5,0.0,2.5616884231567383,0.09834766387939453,-0.19175104796886444,24.5,0.0,3.305196762084961,-0.8200407028198242,0.0,13.5,0.0,3.2132863998413086,-0.4820823669433594,0.0,13.75,,,,,,,,,,,,,,,
0.0,0.07677417248487473,2.22440505027771,0.015498921275138855,0.013636264950037003,-0.057952627539634705,-0.06291159242391586,0.005415148101747036,0.2598375380039215,-0.013182428665459156,0.0,2.9675960540771484,-1.1687278747558594,-1.9175104796886444,15.75,0.0,2.901434898376465,-1.0339021682739258,-1.9175104796886444,19.0,0.0,2.8524398803710938,-0.5128383636474609,-0.9587552398443222,20.5,0.0,2.493739128112793,-0.2542734146118164,-0.19175104796886444,18.75,0.0,2.5720596313476562,-0.35440921783447266,-0.5752531439065933,21.5,0.0,2.7168989181518555,-0.2624988555908203,-0.5752531439065933,21.75,0.0,3.16464900970459,-0.7431507110595703,0.0,14.75,0.0,3.2869577407836914,-0.7860660552978516,0.0,13.25,,,,,,,,,,,,,,,,,,,,
0.0,0.10923320800065994,2.2377915382385254,0.005226841662079096,0.08639729022979736,0.039824385195970535,-0.0730515867471695,0.046152472496032715,0.4077889323234558,-0.017150621861219406,0.0,2.817392349243164,-1.0814666748046875,-1.9175104796886444,16.75,0.0,2.699732780456543,-0.9917020797729492,-1.9175104796886444,21.5,0.0,2.628207206726074,-0.42235851287841797,-0.3835020959377289,24.25,0.0,2.4061203002929688,-0.09226799011230469,-0.3835020959377289,17.5,0.0,2.4755001068115234,-0.11157989501953125,-0.3835020959377289,26.75,0.0,2.520918846130371,-0.16951560974121094,-0.3835020959377289,28.0,,,,,,,,,,,,,,,,,,,,,,,,,,,,,,
0.0,0.11050178110599518,2.253675699234009,-0.0021626288071274757,0.07646742463111877,0.11698108166456223,-0.07486424595117569,0.039931684732437134,0.47673705220222473,-0.017484238371253014,0.0,2.6450157165527344,-0.9888410568237305,-0.3835020959377289,16.25,0.0,2.5784969329833984,-0.708460807800293,-0.3835020959377289,20.0,0.0,2.4797916412353516,-0.03147125244140625,-0.5752531439065933,22.75,0.0,2.3381710052490234,0.3000497817993164,-0.5752531439065933,20.25,0.0,2.388596534729004,0.24569034576416016,-0.5752531439065933,24.75,0.0,2.4089813232421875,-0.031113624572753906,0.0,17.0,,,,,,,,,,,,,,,,,,,,,,,,,,,,,,
0.0,0.10065223276615143,2.287358283996582,-0.007838353514671326,0.048662468791007996,0.23572170734405518,-0.07355759292840958,0.02130415476858616,0.6062207818031311,-0.016503123566508293,0.0,2.4765729904174805,-0.7327795028686523,-0.7670041918754578,16.0,0.0,2.419710159301758,-0.14698505401611328,-0.7670041918754578,23.75,0.0,2.3338794708251953,0.03147125244140625,-0.7670041918754578,24.25,0.0,2.3664236068725586,-0.019311904907226562,-0.7670041918754578,27.5,0.0,2.421140670776367,-0.03647804260253906,0.0,30.0,,,,,,,,,,,,,,,,,,,,,,,,,,,,,,,,,,,
0.0,0.030072815716266632,2.3129396438598633,-0.01122184470295906,-0.09081196784973145,0.2814527153968811,-0.06751441955566406,-0.09871344268321991,0.5690876245498657,-0.009931796230375767,0.0,2.5262832641601562,-1.3768672943115234,-0.19175104796886444,12.25,0.0,2.430081367492676,-1.1497735977172852,0.19175104796886444,16.25,0.0,2.3496150970458984,-0.5693435668945312,-0.9587552398443222,20.75,0.0,2.261996269226074,-0.3243684768676758,-0.9587552398443222,27.25,0.0,2.2019147872924805,-0.08654594421386719,-0.9587552398443222,16.0,0.0,2.2373199462890625,-0.1920461654663086,-0.9587552398443222,28.25,0.0,2.3496150970458984,0.04220008850097656,0.0,26.0,0.0,2.4204254150390625,-0.07259845733642578,0.0,30.0,,,,,,,,,,,,,,,,,,,,
0.0,0.02049805223941803,2.34393048286438,-0.018022945150732994,0.0,0.0,0.0,0.0,0.0,0.0,0.0,2.688288688659668,-1.202702522277832,-0.5752531439065933,12.5,0.0,2.77554988861084,-1.2449026107788086,-1.342257335782051,12.0,0.0,2.415776252746582,-0.24819374084472656,-0.3835020959377289,20.0,0.0,2.1429061889648438,-0.10585784912109375,-0.9587552398443222,17.25,0.0,2.200484275817871,-0.16415119171142578,-0.9587552398443222,26.0,0.0,2.2966861724853516,-0.20813941955566406,-0.3835020959377289,24.5,0.0,2.5130510330200195,-0.13053417205810547,0.0,30.0,0.0,2.3320913314819336,0.02968311309814453,0.0,26.75,0.0,2.4182796478271484,-0.07581710815429688,0.0,30.5,,,,,,,,,,,,,,,
0.0,0.011085892096161842,2.3529129028320312,-0.01433238759636879,-0.01801714301109314,0.03426271677017212,0.005986395291984081,-0.017085092142224312,0.05913976579904556,0.004194935783743858,0.0,2.4983882904052734,-1.147627830505371,-0.9587552398443222,18.5,0.0,2.573847770690918,-1.2105703353881836,-1.342257335782051,17.75,0.0,2.4704933166503906,-0.5296468734741211,0.19175104796886444,19.5,0.0,2.293825149536133,-0.08654594421386719,-0.3835020959377289,21.0,0.0,2.0263195037841797,0.14734268188476562,-0.7670041918754578,12.75,0.0,2.071380615234375,0.22101402282714844,-0.7670041918754578,21.75,0.0,2.0989179611206055,0.3025531768798828,-0.7670041918754578,26.5,0.0,2.48873233795166,-0.16701221466064453,0.0,29.25,0.0,2.4036169052124023,-0.06580352783203125,0.0,30.25,,,,,,,,,,,,,,,
0.0,0.011085892096161842,2.3529129028320312,-0.01433238759636879,-0.01801714301109314,0.03426271677017212,0.005986395291984081,-0.017085092142224312,0.05913976579904556,0.004194935783743858,0.0,2.331376075744629,-1.3321638107299805,-0.5752531439065933,16.0,0.0,2.284526824951172,-1.1805295944213867,-0.7670041918754578,15.0,0.0,2.2072792053222656,-0.3905296325683594,-0.7670041918754578,17.75,0.0,1.9358396530151367,-0.2753734588623047,-0.7670041918754578,21.75,0.0,1.960158348083496,-0.28896331787109375,-0.7670041918754578,25.0,0.0,2.0520687103271484,-0.1856088638305664,-0.7670041918754578,24.75,0.0,2.5777816772460938,-0.5918741226196289,0.0,17.75,0.0,2.4830102920532227,-0.2453327178955078,0.0,26.25,0.0,2.3936033248901367,-0.051856040954589844,0.0,30.0,,,,,,,,,,,,,,,
0.0,0.011085892096161842,2.3529129028320312,-0.01433238759636879,-0.01801714301109314,0.03426271677017212,0.005986395291984081,-0.017085092142224312,0.05913976579904556,0.004194935783743858,0.0,2.307772636413574,-1.1365413665771484,-0.5752531439065933,17.5,0.0,2.391815185546875,-1.1179447174072266,-0.3835020959377289,15.75,0.0,2.2122859954833984,-0.3587007522583008,-0.5752531439065933,15.0,0.0,1.8256902694702148,-0.25391578674316406,-0.7670041918754578,19.5,0.0,1.8922090530395508,-0.14770030975341797,-0.7670041918754578,28.0,0.0,1.9462108612060547,-0.019669532775878906,-0.3835020959377289,29.25,0.0,2.026677131652832,-0.014662742614746094,-0.5752531439065933,26.5,0.0,2.5691986083984375,-0.5539655685424805,0.0,18.25,0.0,2.3910999298095703,-0.11014938354492188,0.0,29.5,0.0,2.47800350189209,-0.22029876708984375,0.0,22.5,,,,,,,,,,
0.0,0.011085892096161842,2.3529129028320312,-0.01433238759636879,-0.01801714301109314,0.03426271677017212,0.005986395291984081,-0.017085092142224312,0.05913976579904556,0.004194935783743858,0.0,2.0399093627929688,-1.5431642532348633,-0.19175104796886444,14.75,0.0,1.9816160202026367,-0.7317066192626953,-0.3835020959377289,21.25,0.0,2.177596092224121,-0.6659030914306641,-0.19175104796886444,14.0,0.0,1.8074512481689453,-0.11265277862548828,-0.5752531439065933,15.25,0.0,1.8482208251953125,-0.1119375228881836,-0.5752531439065933,20.75,0.0,1.9147396087646484,-0.18131732940673828,-0.3835020959377289,19.0,0.0,2.507328987121582,-1.358628273010254,0.0,12.75,0.0,2.4247169494628906,-0.1691579818725586,0.0,17.25,0.0,2.3299455642700195,-0.01430511474609375,0.0,26.75,,,,,,,,,,,,,,,
0.0,0.011085892096161842,2.3529129028320312,-0.01433238759636879,-0.01801714301109314,0.03426271677017212,0.005986395291984081,-0.017085092142224312,0.05913976579904556,0.004194935783743858,0.0,2.3277997970581055,-1.1698007583618164,-0.19175104796886444,15.0,0.0,2.436518669128418,-1.1140108108520508,-0.19175104796886444,15.5,0.0,1.704096794128418,-0.3801584243774414,-0.3835020959377289,20.75,0.0,1.7330646514892578,-0.3540515899658203,-0.19175104796886444,22.75,0.0,2.016305923461914,-0.29397010803222656,-0.3835020959377289,15.0,0.0,1.873612403869629,-0.038623809814453125,-0.3835020959377289,19.25,0.0,2.301335334777832,-1.4469623565673828,0.0,15.25,0.0,2.4318695068359375,-1.4977455139160156,0.0,12.25,0.0,2.4268627166748047,-0.007867813110351562,0.0,16.25,,,,,,,,,,,,,,,
0.0,0.011085892096161842,2.3529129028320312,-0.01433238759636879,-0.01801714301109314,0.03426271677017212,0.005986395291984081,-0.017085092142224312,0.05913976579904556,0.004194935783743858,0.0,2.222299575805664,-1.3053417205810547,-0.19175104796886444,15.5,0.0,2.2412538528442383,-1.3926029205322266,-0.19175104796886444,12.75,0.0,1.6543865203857422,-0.20635128021240234,-0.19175104796886444,12.75,0.0,1.6994476318359375,-0.2524852752685547,-0.19175104796886444,21.0,0.0,1.740574836730957,-0.24569034576416016,-0.19175104796886444,21.5,0.0,1.8614530563354492,-0.06830692291259766,-0.3835020959377289,16.5,,,,,,,,,,,,,,,,,,,,,,,,,,,,,,
0.0,-0.0049924831837415695,2.3641927242279053,-0.011827578768134117,-0.0482897013425827,0.06501765549182892,0.010158834047615528,-0.045188214629888535,0.10309155285358429,0.007285916246473789,0.0,2.078890800476074,-1.3425350189208984,-0.7670041918754578,18.75,0.0,2.0946264266967773,-1.3818740844726562,-0.7670041918754578,20.25,0.0,2.1386146545410156,-1.4498233795166016,-0.7670041918754578,14.25,0.0,1.6733407974243164,-0.09763240814208984,-0.3835020959377289,16.75,0.0,1.7184019088745117,-0.0890493392944336,-0.3835020959377289,26.0,0.0,1.7284154891967773,-0.07545948028564453,-0.3835020959377289,27.0,0.0,1.797795295715332,-0.04363059997558594,-0.3835020959377289,18.5,,,,,,,,,,,,,,,,,,,,,,,,,
0.0,-0.0049924831837415695,2.3641927242279053,-0.011827578768134117,-0.0482897013425827,0.06501765549182892,0.010158834047615528,-0.045188214629888535,0.10309155285358429,0.007285916246473789,0.0,2.0134449005126953,-1.2145042419433594,-0.9587552398443222,14.5,0.0,1.9812583923339844,-1.0328292846679688,-0.9587552398443222,13.75,0.0,1.6407966613769531,0.007152557373046875,-0.3835020959377289,18.0,0.0,1.6554594039916992,0.02574920654296875,-0.3835020959377289,24.0,0.0,1.683354377746582,0.0776052474975586,-0.3835020959377289,20.25,,,,,,,,,,,,,,,,,,,,,,,,,,,,,,,,,,,
0.0,-0.0049924831837415695,2.3641927242279053,-0.011827578768134117,-0.0482897013425827,0.06501765549182892,0.010158834047615528,-0.045188214629888535,0.10309155285358429,0.007285916246473789,,,,,,,,,,,,,,,,,,,,,,,,,,,,,,,,,,,,,,,,,,,,,,,,,,,,,,,,,,,,
0.0,0.20025679469108582,3.4043900966644287,0.05952867120504379,-0.036587897688150406,-0.6219987869262695,-0.010876179672777653,0.0,0.0,0.01828264445066452,0.0,1.4233589172363281,0.027179718017578125,0.0,16.0,,,,,,,,,,,,,,,,,,,,,,,,,,,,,,,,,,,,,,,,,,,,,,,,,,,,,,,
0.0,0.1897103190422058,3.3432364463806152,0.05725640803575516,-0.10581411421298981,-0.6113636493682861,-0.021870166063308716,-0.006986080203205347,0.003463521134108305,0.017049944028258324,,,,,,,,,,,,,,,,,,,,,,,,,,,,,,,,,,,,,,,,,,,,,,,,,,,,,,,,,,,,
0.0,0.21075645089149475,3.2729523181915283,0.0514511913061142,0.0548262745141983,-0.6624284386634827,-0.03912521153688431,0.02334357053041458,-0.052718088030815125,0.012621044181287289,,,,,,,,,,,,,,,,,,,,,,,,,,,,,,,,,,,,,,,,,,,,,,,,,,,,,,,,,,,,
0.0,0.23082175850868225,3.206782579421997,0.039243392646312714,0.10773839056491852,-0.6652868986129761,-0.06695602089166641,0.03912860527634621,-0.04400894045829773,0.004408117383718491,,,,,,,,,,,,,,,,,,,,,,,,,,,,,,,,,,,,,,,,,,,,,,,,,,,,,,,,,,,,
0.0,0.1786566823720932,3.125979423522949,0.026722192764282227,-0.0619310662150383,-0.7338557243347168,-0.08258452266454697,-0.040186356753110886,-0.19190356135368347,-0.0028470363467931747,,,,,,,,,,,,,,,,,,,,,,,,,,,,,,,,,,,,,,,,,,,,,,,,,,,,,,,,,,,,
0.0,0.13466405868530273,3.0793662071228027,0.010490795597434044,-0.1500517576932907,-0.6543501615524292,-0.10073705017566681,-0.07590186595916748,-0.014701515436172485,-0.010651372373104095,,,,,,,,,,,,,,,,,,,,,,,,,,,,,,,,,,,,,,,,,,,,,,,,,,,,,,,,,,,,
0.0,-0.015941128134727478,3.0275073051452637,0.0002399971999693662,-0.43523547053337097,-0.6315652132034302,-0.10197357088327408,-0.2518480718135834,-0.010149477049708366,-0.010534597560763359,,,,,,,,,,,,,,,,,,,,,,,,,,,,,,,,,,,,,,,,,,,,,,,,,,,,,,,,,,,,
0.0,-0.11325303465127945,2.961951494216919,-0.0057788752019405365,-0.5603598356246948,-0.6628667712211609,-0.09454458951950073,-0.32394668459892273,-0.09183908253908157,-0.0035615302622318268,,,,,,,,,,,,,,,,,,,,,,,,,,,,,,,,,,,,,,,,,,,,,,,,,,,,,,,,,,,,
0.0,-0.2064386010169983,2.9094202518463135,-0.010944301262497902,-0.664519190788269,-0.6288345456123352,-0.08729391545057297,-0.39373907446861267,-0.023338682949543,0.0020027058199048042,,,,,,,,,,,,,,,,,,,,,,,,,,,,,,,,,,,,,,,,,,,,,,,,,,,,,,,,,,,,
0.0,-0.22441351413726807,2.841439723968506,-0.012070640921592712,-0.599301278591156,-0.6615300178527832,-0.07208861410617828,-0.2830422818660736,-0.08503767102956772,0.01662484183907509,,,,,,,,,,,,,,,,,,,,,,,,,,,,,,,,,,,,,,,,,,,,,,,,,,,,,,,,,,,,
0.0,-0.19884014129638672,2.777080774307251,-0.012322260066866875,-0.4584168791770935,-0.6560930609703064,-0.05735781788825989,-0.11417743563652039,-0.0601855143904686,0.02903888374567032,0.0,0.914454460144043,-0.04291534423828125,0.19175104796886444,20.5,0.0,1.0224580764770508,0.004649162292480469,0.19175104796886444,20.0,0.0,1.1004209518432617,0.091552734375,0.19175104796886444,13.75,,,,,,,,,,,,,,,,,,,,,,,,,,,,,,,,,,,,,,,,,,,,,
0.0,-0.2998341917991638,2.710023880004883,-0.009869659319519997,-0.5765505433082581,-0.6750117540359497,-0.03827066719532013,-0.22117464244365692,-0.08394718915224075,0.04520832747220993,0.0,0.9001493453979492,-0.1666545867919922,0.19175104796886444,15.0,0.0,1.042485237121582,-0.1888275146484375,0.19175104796886444,16.75,,,,,,,,,,,,,,,,,,,,,,,,,,,,,,,,,,,,,,,,,,,,,,,,,,
0.0,-0.40189695358276367,2.6299870014190674,-0.008295625448226929,-0.661318302154541,-0.7658378481864929,-0.021507155150175095,-0.26429885625839233,-0.23225775361061096,0.058471500873565674,,,,,,,,,,,,,,,,,,,,,,,,,,,,,,,,,,,,,,,,,,,,,,,,,,,,,,,,,,,,
0.0,-0.4400328993797302,2.552976369857788,-0.006364684086292982,-0.6146792769432068,-0.807881772518158,-0.007252910174429417,-0.18117791414260864,-0.273468017578125,0.06695671379566193,0.0,1.1125802993774414,0.3393888473510742,0.19175104796886444,17.25,,,,,,,,,,,,,,,,,,,,,,,,,,,,,,,,,,,,,,,,,,,,,,,,,,,,,,,
0.0,-0.4192677140235901,2.499135732650757,-0.004344513639807701,-0.47477665543556213,-0.7574087977409363,0.0038814623840153217,-0.034859851002693176,-0.16962341964244843,0.07085640728473663,0.0,1.1540651321411133,0.2810955047607422,0.19175104796886444,20.0,,,,,,,,,,,,,,,,,,,,,,,,,,,,,,,,,,,,,,,,,,,,,,,,,,,,,,,
0.0,-0.3865692615509033,2.430457592010498,-0.0026289895176887512,-0.3116690218448639,-0.7573213577270508,0.012900816276669502,0.1267407238483429,-0.15498274564743042,0.07258225977420807,0.0,1.4462471008300781,-1.2738704681396484,0.19175104796886444,12.0,0.0,0.9090900421142578,-0.10764598846435547,0.3835020959377289,23.75,0.0,1.0732412338256836,-0.12695789337158203,0.3835020959377289,27.0,0.0,1.1258125305175781,-0.04756450653076172,0.19175104796886444,23.25,0.0,1.2288093566894531,0.2886056900024414,0.19175104796886444,16.75,,,,,,,,,,,,,,,,,,,,,,,,,,,,,,,,,,,
0.0,-0.4463476538658142,2.3476240634918213,-0.0005687536904588342,-0.3556801378726959,-0.789737343788147,0.021087607368826866,0.07532761991024017,-0.17564332485198975,0.07343017309904099,0.0,1.5903711318969727,-1.399397850036621,0.19175104796886444,14.25,0.0,0.914454460144043,-0.04076957702636719,0.3835020959377289,19.0,0.0,1.1605024337768555,0.020742416381835938,0.3835020959377289,26.0,0.0,2.5681257247924805,0.021457672119140625,0.5752531439065933,14.0,0.0,1.192331314086914,0.09584426879882812,0.3835020959377289,26.5,0.0,1.2481212615966797,0.16808509826660156,0.3835020959377289,19.5,,,,,,,,,,,,,,,,,,,,,,,,,,,,,,
0.0,-0.4364212453365326,2.2913458347320557,0.0011420105583965778,-0.25928816199302673,-0.7732177376747131,0.026691097766160965,0.15574276447296143,-0.14822238683700562,0.07189968973398209,0.0,1.507401466369629,-1.3267993927001953,0.19175104796886444,14.75,0.0,1.5292167663574219,-1.016378402709961,0.3835020959377289,13.5,0.0,1.4104843139648438,-0.7846355438232422,0.3835020959377289,12.0,0.0,1.168370246887207,-0.12195110321044922,0.3835020959377289,22.5,0.0,1.1844635009765625,-0.14162063598632812,0.3835020959377289,23.0,0.0,1.2534856796264648,-0.1881122589111328,0.3835020959377289,15.75,0.0,0.9119510650634766,-0.08082389831542969,0.5752531439065933,14.0,,,,,,,,,,,,,,,,,,,,,,,,,
0.0,-0.3770572543144226,2.2525365352630615,0.0024706190451979637,-0.08428943157196045,-0.7173911333084106,0.030299285426735878,0.2940867245197296,-0.07725704461336136,0.06893740594387054,0.0,1.6608238220214844,-1.318216323852539,0.19175104796886444,17.25,0.0,1.7044544219970703,-1.3529062271118164,0.19175104796886444,20.75,0.0,1.774907112121582,-1.3521909713745117,0.19175104796886444,16.5,0.0,1.245260238647461,-0.41985511779785156,0.3835020959377289,15.75,0.0,1.2145042419433594,-0.3129243850708008,0.3835020959377289,18.75,0.0,1.2030601501464844,-0.21529197692871094,0.5752531439065933,16.25,0.0,2.6972293853759766,-0.05543231964111328,0.7670041918754578,12.75,0.0,1.2062788009643555,0.5904436111450195,0.5752531439065933,16.25,0.0,0.9080171585083008,-0.11658668518066406,0.0,15.5,,,,,,,,,,,,,,,
0.0,-0.4217974543571472,2.1678037643432617,0.003700034227222204,-0.1252451241016388,-0.752348005771637,0.0331621952354908,0.233864888548851,-0.10756966471672058,0.06583115458488464,0.0,1.8213987350463867,-1.3042688369750977,0.19175104796886444,15.5,0.0,1.8600225448608398,-1.289963722229004,0.19175104796886444,13.5,0.0,1.4204978942871094,-0.21278858184814453,0.5752531439065933,15.25,0.0,1.3446807861328125,-0.04506111145019531,0.5752531439065933,24.25,0.0,1.2516975402832031,0.06723403930664062,0.5752531439065933,22.0,0.0,1.2888908386230469,0.07617473602294922,0.5752531439065933,26.25,,,,,,,,,,,,,,,,,,,,,,,,,,,,,,
0.0,-0.3930768668651581,2.109193801879883,0.0046005151234567165,-0.033579058945178986,-0.7103275060653687,0.03470095992088318,0.2865610420703888,-0.034659259021282196,0.06208880990743637,0.0,1.6987323760986328,-1.4562606811523438,1.1505062878131866,17.5,0.0,1.7226934432983398,-1.4666318893432617,1.1505062878131866,15.0,0.0,1.5070438385009766,-0.6269216537475586,0.5752531439065933,13.5,0.0,1.4194250106811523,-0.4849433898925781,0.5752531439065933,23.25,0.0,1.3968944549560547,-0.3701448440551758,0.5752531439065933,26.0,0.0,1.3833045959472656,-0.2557039260864258,0.7670041918754578,22.75,0.0,1.3132095336914062,-0.17631053924560547,0.7670041918754578,12.25,,,,,,,,,,,,,,,,,,,,,,,,,
0.0,-0.3863748013973236,2.04665207862854,0.006085556000471115,0.0035510528832674026,-0.6672835350036621,0.03691154718399048,0.2861292362213135,0.04215622693300247,0.05925409868359566,0.0,1.4780759811401367,-0.1480579376220703,0.7670041918754578,26.25,0.0,1.5742778778076172,-0.2084970474243164,0.7670041918754578,13.0,0.0,1.347184181213379,-0.0711679458618164,0.7670041918754578,13.25,0.0,1.4290809631347656,-0.102996826171875,0.7670041918754578,26.25,0.0,1.4505386352539062,-0.12803077697753906,0.7670041918754578,30.25,,,,,,,,,,,,,,,,,,,,,,,,,,,,,,,,,,,
0.0,-0.41951146721839905,2.00433087348938,0.0069129616022109985,-0.04244554787874222,-0.5867375731468201,0.03754362091422081,0.20988023281097412,0.1607566773891449,0.055642034858465195,0.0,1.556396484375,-0.5514621734619141,0.7670041918754578,16.75,0.0,1.4963150024414062,-0.27251243591308594,0.5752531439065933,24.0,0.0,1.46484375,-0.0826120376586914,0.5752531439065933,27.0,0.0,1.4508962631225586,-0.02682209014892578,0.5752531439065933,22.25,0.0,1.314997673034668,-0.011801719665527344,0.0,21.75,,,,,,,,,,,,,,,,,,,,,,,,,,,,,,,,,,,
0.0,-0.4442530572414398,1.964927077293396,0.00755793321877718,-0.07144828140735626,-0.5039812326431274,0.037564344704151154,0.15451130270957947,0.26713815331459045,0.051960933953523636,0.0,1.8603801727294922,-1.4247894287109375,0.7670041918754578,17.5,0.0,1.8979310989379883,-1.5031099319458008,0.7670041918754578,14.25,0.0,1.6565322875976562,-1.1658668518066406,0.7670041918754578,18.25,0.0,1.7673969268798828,-1.2788772583007812,0.7670041918754578,19.75,0.0,1.6404390335083008,-0.8844137191772461,0.7670041918754578,15.0,0.0,1.7137527465820312,-0.21386146545410156,0.7670041918754578,12.75,0.0,1.6279220581054688,-0.0629425048828125,0.5752531439065933,16.25,0.0,1.3232231140136719,0.019311904907226562,0.0,21.25,,,,,,,,,,,,,,,,,,,,
