tid,posx,posy,posz,velx,vely,velz,accx,accy,accz,pointx1,pointy1,pointz1,doppler1,snr1,pointx2,pointy2,pointz2,doppler2,snr2,pointx3,pointy3,pointz3,doppler3,snr3,pointx4,pointy4,pointz4,doppler4,snr4,pointx5,pointy5,pointz5,doppler5,snr5,pointx6,pointy6,pointz6,doppler6,snr6,pointx7,pointy7,pointz7,doppler7,snr7,pointx8,pointy8,pointz8,doppler8,snr8,pointx9,pointy9,pointz9,doppler9,snr9,pointx10,pointy10,pointz10,doppler10,snr10,pointx11,pointy11,pointz11,doppler11,snr11,pointx12,pointy12,pointz12,doppler12,snr12,pointx13,pointy13,pointz13,doppler13,snr13,pointx14,pointy14,pointz14,doppler14,snr14,pointx15,pointy15,pointz15,doppler15,snr15,pointx16,pointy16,pointz16,doppler16,snr16,pointx17,pointy17,pointz17,doppler17,snr17
0.0,-0.014994421042501926,1.4084434509277344,0.02458675391972065,0.0025511239655315876,-0.23963004350662231,-0.004183146636933088,0.0,0.0,0.0,0.0,1.2491941452026367,0.007510185241699219,-0.3835020959377289,18.75,0.0,1.273512840270996,0.2760887145996094,-0.3835020959377289,24.25,0.0,1.2649297714233398,0.47850608825683594,-0.3835020959377289,24.5,0.0,1.3085603713989258,0.5489587783813477,-0.3835020959377289,14.25,,,,,,,,,,,,,,,,,,,,,,,,,,,,,,,,,,,,,,,,,,,,,,,,,,,,,,,,,,,,,,,,,
0.0,-0.015068447217345238,1.3823578357696533,0.023471692577004433,-0.0007517826743423939,-0.26148346066474915,-0.011194076389074326,-0.00023043117835186422,-0.012538153678178787,-0.0008690657559782267,0.0,0.91552734375,0.006079673767089844,-0.3835020959377289,13.25,0.0,1.2170076370239258,0.03254413604736328,-0.3835020959377289,23.75,0.0,2.98154354095459,0.022172927856445312,-0.3835020959377289,15.5,0.0,1.2409687042236328,0.06437301635742188,-0.3835020959377289,25.25,0.0,1.2924671173095703,0.07832050323486328,-0.19175104796886444,19.75,0.0,3.002643585205078,0.10013580322265625,-0.3835020959377289,14.25,,,,,,,,,,,,,,,,,,,,,,,,,,,,,,,,,,,,,,,,,,,,,,,,,,,,,,,
0.0,-0.037728939205408096,1.3539453744888306,0.020538154989480972,-0.11602485924959183,-0.2758174240589142,-0.020539378747344017,-0.023577995598316193,-0.03339854255318642,-0.002964126644656062,0.0,1.4058351516723633,-0.24068355560302734,-0.19175104796886444,12.75,0.0,1.318216323852539,-0.07796287536621094,-0.19175104796886444,23.25,0.0,0.91552734375,-0.011444091796875,-0.19175104796886444,16.5,0.0,1.2073516845703125,-0.0057220458984375,-0.19175104796886444,25.75,0.0,1.2520551681518555,-0.010371208190917969,-0.3835020959377289,27.0,0.0,1.3203620910644531,-0.04935264587402344,0.0,22.0,,,,,,,,,,,,,,,,,,,,,,,,,,,,,,,,,,,,,,,,,,,,,,,,,,,,,,,
0.0,-0.09691104292869568,1.3205561637878418,0.015568369999527931,-0.2838749289512634,-0.30613642930984497,-0.03104042261838913,-0.07232971489429474,-0.08856634795665741,-0.0065291086211800575,0.0,1.1143684387207031,-0.5128383636474609,-0.19175104796886444,18.5,0.0,1.1508464813232422,-0.6158351898193359,-0.19175104796886444,14.25,0.0,0.91552734375,0.001430511474609375,-0.19175104796886444,12.5,0.0,2.8960704803466797,-0.08296966552734375,-0.3835020959377289,12.5,0.0,1.1601448059082031,0.043272972106933594,-0.19175104796886444,19.0,0.0,1.2066364288330078,0.3218650817871094,0.19175104796886444,21.0,0.0,1.2660026550292969,0.37980079650878906,0.19175104796886444,18.75,0.0,1.370072364807129,0.0032186508178710938,0.0,21.5,0.0,2.978682518005371,0.04398822784423828,0.0,12.75,0.0,3.0459165573120117,0.0400543212890625,0.0,12.0,0.0,1.3146400451660156,0.06759166717529297,0.0,22.25,,,,,,,,,,,,,,,,,,,,,,,,,,,,,,
0.0,0.0078449547290802,1.2920068502426147,0.008723474107682705,0.0724959671497345,-0.3113546669483185,-0.04174458980560303,0.07774591445922852,-0.10214583575725555,-0.010434450581669807,0.0,1.841425895690918,-1.2159347534179688,0.19175104796886444,12.5,0.0,0.91552734375,-0.00858306884765625,0.19175104796886444,20.75,0.0,1.165151596069336,-0.0007152557373046875,0.19175104796886444,28.25,0.0,1.1826753616333008,0.01895427703857422,0.19175104796886444,27.0,0.0,1.256704330444336,0.06008148193359375,0.19175104796886444,19.0,0.0,1.6450881958007812,-1.2978315353393555,0.0,13.5,0.0,1.6658306121826172,-1.3986825942993164,0.0,17.0,0.0,1.6862154006958008,-1.4884471893310547,0.0,14.75,0.0,1.4483928680419922,-0.377655029296875,0.0,15.0,0.0,2.9790401458740234,0.054001808166503906,0.0,12.25,,,,,,,,,,,,,,,,,,,,,,,,,,,,,,,,,,,
0.0,0.025687798857688904,1.25662100315094,0.0030709903221577406,0.10361835360527039,-0.3319520950317383,-0.04604976251721382,0.0895959660410881,-0.11401062458753586,-0.012075457721948624,0.0,1.62506103515625,-1.2863874435424805,-0.19175104796886444,12.25,0.0,1.7434358596801758,-1.3207197189331055,-0.19175104796886444,14.0,0.0,1.2813806533813477,-0.4405975341796875,0.19175104796886444,24.5,0.0,1.3543367385864258,-0.5031824111938477,0.19175104796886444,16.75,0.0,1.2481212615966797,-0.3046989440917969,0.19175104796886444,25.5,0.0,1.1955499649047852,-0.12981891632080078,0.19175104796886444,24.5,0.0,0.9130239486694336,-0.06651878356933594,0.19175104796886444,16.0,0.0,1.3071298599243164,0.4334449768066406,0.19175104796886444,21.5,0.0,1.3725757598876953,0.42629241943359375,0.19175104796886444,12.75,0.0,1.6475915908813477,-1.4165639877319336,0.0,16.0,0.0,1.6998052597045898,-1.4727115631103516,0.0,14.0,0.0,1.4405250549316406,-0.37086009979248047,0.0,14.75,0.0,2.980470657348633,0.05078315734863281,0.0,12.5,0.0,3.041982650756836,0.056862831115722656,0.0,12.25,,,,,,,,,,,,,,,
0.0,0.005651060491800308,1.2322157621383667,-0.0015274531906470656,0.049380138516426086,-0.3059599697589874,-0.047270867973566055,0.049903739243745804,-0.03848449885845184,-0.012492778711020947,0.0,1.6336441040039062,-1.3203620910644531,0.19175104796886444,15.75,0.0,1.7130374908447266,-1.3196468353271484,0.19175104796886444,18.25,0.0,1.7995834350585938,-1.2946128845214844,0.19175104796886444,12.75,0.0,1.416921615600586,-0.5578994750976562,0.19175104796886444,13.25,0.0,1.283884048461914,-0.4069805145263672,0.19175104796886444,17.75,0.0,1.2180805206298828,-0.13554096221923828,0.19175104796886444,22.75,0.0,1.1991262435913086,-0.09262561798095703,0.19175104796886444,21.5,0.0,1.7237663269042969,-1.430511474609375,0.0,15.75,0.0,3.0241012573242188,0.21135807037353516,0.0,12.5,,,,,,,,,,,,,,,,,,,,,,,,,,,,,,,,,,,,,,,,
0.0,-0.008335699327290058,1.2278993129730225,-0.004847207106649876,0.01603754237294197,-0.20648235082626343,-0.04663980007171631,0.018185757100582123,0.15902486443519592,-0.013122407719492912,0.0,1.5982389450073242,-1.3414621353149414,-0.19175104796886444,13.0,0.0,1.633286476135254,-1.4104843139648438,-0.19175104796886444,15.0,0.0,1.4494657516479492,0.21278858184814453,0.19175104796886444,17.75,0.0,1.4187097549438477,0.2893209457397461,0.19175104796886444,23.75,0.0,1.387953758239746,0.3991127014160156,0.19175104796886444,20.0,0.0,1.7023086547851562,-1.3904571533203125,0.0,18.5,0.0,1.7209053039550781,-1.4601945877075195,0.0,16.75,0.0,3.0080080032348633,0.22709369659423828,0.0,12.25,0.0,1.3200044631958008,0.20563602447509766,0.0,22.25,0.0,1.3943910598754883,0.2567768096923828,0.0,13.0,,,,,,,,,,,,,,,,,,,,,,,,,,,,,,,,,,,
0.0,-0.02999645471572876,1.2413090467453003,-0.007562598213553429,-0.03123157098889351,-0.06687891483306885,-0.04589371755719185,-0.032593175768852234,0.38058096170425415,-0.014278026297688484,0.0,1.2427568435668945,-0.034332275390625,0.19175104796886444,14.25,0.0,1.289963722229004,-0.010013580322265625,0.19175104796886444,18.5,0.0,1.3575553894042969,0.13053417205810547,0.19175104796886444,16.75,0.0,1.4061927795410156,0.2110004425048828,0.0,12.5,,,,,,,,,,,,,,,,,,,,,,,,,,,,,,,,,,,,,,,,,,,,,,,,,,,,,,,,,,,,,,,,,
0.0,-0.07162714004516602,1.261132001876831,-0.007973596453666687,-0.11813832819461823,0.05762658640742302,-0.040472567081451416,-0.12623701989650726,0.5259846448898315,-0.009548846632242203,0.0,1.749873161315918,-1.3579130172729492,0.19175104796886444,16.25,0.0,1.7913579940795898,-1.3968944549560547,0.19175104796886444,14.0,0.0,1.2470483779907227,-0.1316070556640625,0.19175104796886444,19.75,0.0,1.259922981262207,-0.1423358917236328,0.19175104796886444,23.75,0.0,1.2813806533813477,-0.15413761138916016,0.19175104796886444,19.25,,,,,,,,,,,,,,,,,,,,,,,,,,,,,,,,,,,,,,,,,,,,,,,,,,,,,,,,,,,,
0.0,-0.23626115918159485,1.3032184839248657,-0.007568036671727896,-0.4682044982910156,0.14946302771568298,-0.0316937081515789,-0.5078448057174683,0.537199854850769,0.0009393403306603432,0.0,1.256704330444336,-0.0017881393432617188,0.19175104796886444,13.5,0.0,1.2917518615722656,0.014662742614746094,0.19175104796886444,18.25,0.0,1.3511180877685547,0.06115436553955078,0.19175104796886444,15.25,,,,,,,,,,,,,,,,,,,,,,,,,,,,,,,,,,,,,,,,,,,,,,,,,,,,,,,,,,,,,,,,,,,,,,
0.0,-0.23369142413139343,1.336057186126709,-0.007491222582757473,-0.3779832422733307,0.18410512804985046,-0.02343444898724556,-0.3286243677139282,0.4635075330734253,0.010457274504005909,0.0,1.273512840270996,-0.056862831115722656,0.19175104796886444,13.25,0.0,1.3260841369628906,-0.04398822784423828,0.19175104796886444,19.5,0.0,1.3689994812011719,-0.0017881393432617188,0.19175104796886444,18.0,,,,,,,,,,,,,,,,,,,,,,,,,,,,,,,,,,,,,,,,,,,,,,,,,,,,,,,,,,,,,,,,,,,,,,
0.0,-0.22314317524433136,1.3556687831878662,-0.007925988174974918,-0.29380887746810913,0.22726482152938843,-0.018240878358483315,-0.19714684784412384,0.45688772201538086,0.014807787723839283,0.0,1.7495155334472656,-1.4569759368896484,0.19175104796886444,15.5,0.0,1.7920732498168945,-1.451253890991211,0.19175104796886444,15.75,,,,,,,,,,,,,,,,,,,,,,,,,,,,,,,,,,,,,,,,,,,,,,,,,,,,,,,,,,,,,,,,,,,,,,,,,,,
0.0,-0.29577353596687317,1.3785432577133179,-0.006378407124429941,-0.39689871668815613,0.23246274888515472,-0.008960044011473656,-0.27693015336990356,0.3804631233215332,0.022939473390579224,0.0,1.628279685974121,-1.3790130615234375,0.0,15.0,0.0,1.6647577285766602,-1.4537572860717773,0.0,20.25,,,,,,,,,,,,,,,,,,,,,,,,,,,,,,,,,,,,,,,,,,,,,,,,,,,,,,,,,,,,,,,,,,,,,,,,,,,
0.0,-0.25485798716545105,1.4044660329818726,-0.005798382684588432,-0.2462538480758667,0.2726917862892151,-0.003866232233121991,-0.09484940767288208,0.3771016299724579,0.025565098971128464,0.0,1.4004707336425781,0.4241466522216797,0.3835020959377289,12.5,0.0,1.6207695007324219,-1.3225078582763672,0.0,12.5,0.0,1.706242561340332,-1.511693000793457,0.0,14.25,,,,,,,,,,,,,,,,,,,,,,,,,,,,,,,,,,,,,,,,,,,,,,,,,,,,,,,,,,,,,,,,,,,,,,
0.0,-0.22086620330810547,1.4285247325897217,-0.004858912900090218,-0.13359352946281433,0.2984258830547333,0.0011569331400096416,0.024146035313606262,0.35581839084625244,0.027804430574178696,0.0,1.5263557434082031,0.25463104248046875,0.3835020959377289,15.25,0.0,1.5599727630615234,0.2868175506591797,0.3835020959377289,16.0,0.0,1.7169713973999023,-1.4369487762451172,0.0,14.75,0.0,1.7580986022949219,-1.4905929565429688,0.0,13.0,,,,,,,,,,,,,,,,,,,,,,,,,,,,,,,,,,,,,,,,,,,,,,,,,,,,,,,,,,,,,,,,,
0.0,-0.36868852376937866,1.4599796533584595,-0.0034291145857423544,-0.38256019353866577,0.29205310344696045,0.006316825747489929,-0.19847223162651062,0.2893065810203552,0.02987021394073963,0.0,1.468062400817871,-0.03790855407714844,0.5752531439065933,13.5,0.0,1.6894340515136719,-1.463770866394043,0.0,12.25,0.0,1.2524127960205078,-0.11157989501953125,0.0,20.25,0.0,1.280665397644043,-0.1112222671508789,0.0,24.25,,,,,,,,,,,,,,,,,,,,,,,,,,,,,,,,,,,,,,,,,,,,,,,,,,,,,,,,,,,,,,,,,
0.0,-0.4079369008541107,1.4906314611434937,-0.0026480809319764376,-0.20120370388031006,0.16049188375473022,0.004651923663914204,0.0,0.0,0.0,0.0,1.5403032302856445,0.010728836059570312,0.7670041918754578,16.5,0.0,1.571059226989746,-0.029325485229492188,0.7670041918754578,16.25,0.0,1.278519630432129,0.022530555725097656,0.0,14.0,,,,,,,,,,,,,,,,,,,,,,,,,,,,,,,,,,,,,,,,,,,,,,,,,,,,,,,,,,,,,,,,,,,,,,
0.0,-0.4280572831630707,1.5066806077957153,-0.002182888565585017,0.0,0.0,0.0,0.0,0.0,0.0,0.0,1.5950202941894531,-0.04184246063232422,0.7670041918754578,15.75,0.0,1.6368627548217773,0.048279762268066406,0.7670041918754578,19.0,0.0,1.6962289810180664,0.06508827209472656,0.5752531439065933,15.0,,,,,,,,,,,,,,,,,,,,,,,,,,,,,,,,,,,,,,,,,,,,,,,,,,,,,,,,,,,,,,,,,,,,,,
0.0,-0.2733335494995117,1.572160005569458,-0.0013013649731874466,0.25018927454948425,0.14211758971214294,0.0008865686831995845,0.19060006737709045,0.16017049551010132,0.00044227371108718216,,,,,,,,,,,,,,,,,,,,,,,,,,,,,,,,,,,,,,,,,,,,,,,,,,,,,,,,,,,,,,,,,,,,,,,,,,,,,,,,,,,,,
0.0,-0.23939906060695648,1.5915237665176392,-0.0009916146518662572,0.3039306402206421,0.19384628534317017,0.0012500076554715633,0.23014014959335327,0.22638854384422302,0.0006558827590197325,,,,,,,,,,,,,,,,,,,,,,,,,,,,,,,,,,,,,,,,,,,,,,,,,,,,,,,,,,,,,,,,,,,,,,,,,,,,,,,,,,,,,
0.0,-0.17416802048683167,1.6335400342941284,-0.0004593806806951761,0.40837201476097107,0.3047085404396057,0.0018182406201958656,0.30781272053718567,0.368228554725647,0.0009598439792171121,0.0,1.7566680908203125,-0.14770030975341797,0.19175104796886444,12.25,0.0,1.8088817596435547,-0.054717063903808594,0.19175104796886444,15.25,0.0,1.741647720336914,0.1856088638305664,0.0,15.0,,,,,,,,,,,,,,,,,,,,,,,,,,,,,,,,,,,,,,,,,,,,,,,,,,,,,,,,,,,,,,,,,,,,,,
0.0,-0.1056525856256485,1.6703284978866577,-9.659031638875604e-05,0.523176908493042,0.40147605538368225,0.002163155935704708,0.39831486344337463,0.4909253418445587,0.001120551722124219,0.0,1.753091812133789,0.14340877532958984,0.19175104796886444,12.75,0.0,1.782059669494629,0.2467632293701172,0.19175104796886444,15.75,0.0,1.7452239990234375,0.16129016876220703,0.0,16.0,,,,,,,,,,,,,,,,,,,,,,,,,,,,,,,,,,,,,,,,,,,,,,,,,,,,,,,,,,,,,,,,,,,,,,
0.0,-0.1056525856256485,1.6703284978866577,-9.659031638875604e-05,0.523176908493042,0.40147605538368225,0.002163155935704708,0.39831486344337463,0.4909253418445587,0.001120551722124219,0.0,1.7466545104980469,0.1373291015625,0.0,16.0,,,,,,,,,,,,,,,,,,,,,,,,,,,,,,,,,,,,,,,,,,,,,,,,,,,,,,,,,,,,,,,,,,,,,,,,,,,,,,,,
0.0,-0.1056525856256485,1.6703284978866577,-9.659031638875604e-05,0.523176908493042,0.40147605538368225,0.002163155935704708,0.39831486344337463,0.4909253418445587,0.001120551722124219,0.0,1.7580986022949219,0.026106834411621094,0.0,16.25,0.0,1.6683340072631836,0.12445449829101562,0.0,17.0,,,,,,,,,,,,,,,,,,,,,,,,,,,,,,,,,,,,,,,,,,,,,,,,,,,,,,,,,,,,,,,,,,,,,,,,,,,
0.0,-0.11202821880578995,1.6682062149047852,-0.0001157328806584701,0.5121509432792664,0.3857315182685852,0.002123130951076746,0.38940614461898804,0.46532827615737915,0.0010870702099055052,0.0,1.760244369506836,-0.0947713851928711,0.0,16.75,0.0,1.6922950744628906,-0.012874603271484375,0.0,17.0,,,,,,,,,,,,,,,,,,,,,,,,,,,,,,,,,,,,,,,,,,,,,,,,,,,,,,,,,,,,,,,,,,,,,,,,,,,
0.0,-0.08877237141132355,1.6698304414749146,-0.00015931787493173033,0.5518049001693726,0.3769928812980652,0.0020096292719244957,0.4220358729362488,0.4450984001159668,0.0009871670044958591,0.0,1.761317253112793,-0.1913309097290039,0.0,12.5,0.0,1.7938613891601562,-0.1995563507080078,0.0,15.5,,,,,,,,,,,,,,,,,,,,,,,,,,,,,,,,,,,,,,,,,,,,,,,,,,,,,,,,,,,,,,,,,,,,,,,,,,,
0.0,-0.08877237141132355,1.6698304414749146,-0.00015931787493173033,0.5518049001693726,0.3769928812980652,0.0020096292719244957,0.4220358729362488,0.4450984001159668,0.0009871670044958591,0.0,2.034902572631836,-1.4820098876953125,0.19175104796886444,13.5,0.0,1.7309188842773438,0.034332275390625,-0.19175104796886444,13.5,0.0,1.7534494400024414,0.008940696716308594,-0.19175104796886444,13.75,0.0,2.0599365234375,-1.4644861221313477,0.0,13.0,0.0,1.788496971130371,-0.19669532775878906,0.0,15.75,0.0,1.7559528350830078,-0.12946128845214844,0.0,13.75,,,,,,,,,,,,,,,,,,,,,,,,,,,,,,,,,,,,,,,,,,,,,,,,,,,,,,,
0.0,-0.08877237141132355,1.6698304414749146,-0.00015931787493173033,0.5518049001693726,0.3769928812980652,0.0020096292719244957,0.4220358729362488,0.4450984001159668,0.0009871670044958591,0.0,2.15756893157959,-1.2999773025512695,0.19175104796886444,13.0,0.0,2.111077308654785,-1.3883113861083984,0.0,13.25,0.0,1.7352104187011719,-0.05793571472167969,0.0,16.25,,,,,,,,,,,,,,,,,,,,,,,,,,,,,,,,,,,,,,,,,,,,,,,,,,,,,,,,,,,,,,,,,,,,,,
0.0,-0.08877237141132355,1.6698304414749146,-0.00015931787493173033,0.5518049001693726,0.3769928812980652,0.0020096292719244957,0.4220358729362488,0.4450984001159668,0.0009871670044958591,0.0,2.244114875793457,-1.2509822845458984,0.19175104796886444,13.25,0.0,1.7791986465454102,-0.0826120376586914,0.19175104796886444,20.75,0.0,1.8249750137329102,-0.12624263763427734,0.19175104796886444,15.0,0.0,1.7563104629516602,-0.052928924560546875,0.19175104796886444,19.25,,,,,,,,,,,,,,,,,,,,,,,,,,,,,,,,,,,,,,,,,,,,,,,,,,,,,,,,,,,,,,,,,
0.0,-0.08877237141132355,1.6698304414749146,-0.00015931787493173033,0.5518049001693726,0.3769928812980652,0.0020096292719244957,0.4220358729362488,0.4450984001159668,0.0009871670044958591,0.0,2.2069215774536133,-1.2695789337158203,0.19175104796886444,14.75,0.0,1.8357038497924805,-0.06508827209472656,0.19175104796886444,18.25,0.0,1.7695426940917969,-0.024318695068359375,0.3835020959377289,22.25,0.0,1.783132553100586,-0.03719329833984375,0.3835020959377289,24.5,0.0,1.740574836730957,-0.01823902130126953,0.0,18.0,0.0,1.7555952072143555,0.010013580322265625,0.0,18.75,,,,,,,,,,,,,,,,,,,,,,,,,,,,,,,,,,,,,,,,,,,,,,,,,,,,,,,
0.0,-0.09746846556663513,1.6573563814163208,-0.00026157518732361495,0.5350161194801331,0.3314720094203949,0.0018933381652459502,0.40744391083717346,0.378872275352478,0.0009202476940117776,0.0,2.2197961807250977,-1.2320280075073242,0.3835020959377289,18.75,0.0,2.2280216217041016,-1.3571977615356445,0.19175104796886444,14.25,0.0,2.2058486938476562,-1.0571479797363281,0.3835020959377289,16.25,0.0,1.9973516464233398,-0.23925304412841797,0.3835020959377289,15.0,0.0,1.8128156661987305,-0.004649162292480469,0.3835020959377289,23.75,0.0,1.832127571105957,-0.019669532775878906,0.3835020959377289,29.75,0.0,1.8593072891235352,-0.05042552947998047,0.3835020959377289,26.5,0.0,1.989126205444336,-0.2410411834716797,0.0,13.0,0.0,1.794576644897461,0.00858306884765625,0.0,23.75,0.0,1.816391944885254,0.0010728836059570312,0.0,27.5,0.0,1.8475055694580078,-0.02467632293701172,0.0,23.25,,,,,,,,,,,,,,,,,,,,,,,,,,,,,,
0.0,-0.13085529208183289,1.6675899028778076,-0.00013346142077352852,0.4793097972869873,0.33477044105529785,0.0019937430042773485,0.36262550950050354,0.3738512396812439,0.0009506354690529406,0.0,2.200484275817871,-1.3375282287597656,0.19175104796886444,20.75,0.0,2.2312402725219727,-1.3725757598876953,0.19175104796886444,18.0,0.0,2.308487892150879,-0.8901357650756836,0.3835020959377289,17.25,0.0,1.8868446350097656,0.12946128845214844,0.19175104796886444,18.5,0.0,1.888275146484375,0.18775463104248047,0.19175104796886444,19.25,0.0,2.2373199462890625,-1.358628273010254,0.0,16.75,,,,,,,,,,,,,,,,,,,,,,,,,,,,,,,,,,,,,,,,,,,,,,,,,,,,,,,
0.0,-0.15175850689411163,1.681581735610962,-2.425960701657459e-05,0.44563087821006775,0.3319489657878876,0.00200257683172822,0.33654701709747314,0.3514271378517151,0.0008897813968360424,0.0,2.0252466201782227,-0.9076595306396484,-0.3835020959377289,14.0,0.0,2.179741859436035,-0.8947849273681641,-0.3835020959377289,14.75,0.0,1.8167495727539062,0.18417835235595703,0.19175104796886444,16.0,0.0,1.8410682678222656,0.29397010803222656,0.19175104796886444,22.0,0.0,1.8564462661743164,0.5106925964355469,0.19175104796886444,21.75,0.0,1.9254684448242188,0.5872249603271484,0.19175104796886444,15.5,0.0,2.1740198135375977,-1.3443231582641602,0.0,19.5,0.0,2.221226692199707,-1.3997554779052734,0.0,16.5,0.0,2.0220279693603516,-0.0718832015991211,0.0,14.25,,,,,,,,,,,,,,,,,,,,,,,,,,,,,,,,,,,,,,,,
0.0,-0.12455280125141144,1.730502963066101,0.00022439961321651936,0.4478837847709656,0.37309640645980835,0.002013329416513443,0.311160147190094,0.34562912583351135,0.000780070957262069,0.0,2.2870302200317383,-1.063227653503418,-0.19175104796886444,12.25,0.0,1.9898414611816406,-0.47385692596435547,-0.19175104796886444,14.25,0.0,1.8635988235473633,0.23066997528076172,0.19175104796886444,23.75,0.0,1.8045902252197266,0.3275871276855469,0.19175104796886444,20.25,0.0,1.8281936645507812,0.3254413604736328,0.19175104796886444,26.75,0.0,2.191901206970215,-1.3006925582885742,0.0,20.0,0.0,2.2444725036621094,-1.3550519943237305,0.0,16.5,0.0,1.7995834350585938,0.043272972106933594,0.0,21.0,0.0,1.8253326416015625,0.03719329833984375,0.0,26.25,0.0,1.8575191497802734,0.012516975402832031,0.0,23.0,,,,,,,,,,,,,,,,,,,,,,,,,,,,,,,,,,,
0.0,-0.15859505534172058,1.8067916631698608,0.00046955927973613143,0.3448082208633423,0.4332561194896698,0.001814149203710258,0.20068204402923584,0.35090821981430054,0.00047461327631026506,0.0,1.9519329071044922,-1.490950584411621,-0.19175104796886444,12.25,0.0,2.0052194595336914,-1.3110637664794922,-0.19175104796886444,15.25,0.0,1.9358396530151367,-0.05543231964111328,-0.19175104796886444,19.75,0.0,1.946568489074707,-0.03826618194580078,-0.19175104796886444,21.5,0.0,2.0166635513305664,0.12302398681640625,-0.19175104796886444,15.5,0.0,2.239108085632324,-1.3775825500488281,0.0,16.25,0.0,1.8006563186645508,0.04792213439941406,0.0,20.75,0.0,1.8246173858642578,0.03540515899658203,0.0,25.75,0.0,1.8575191497802734,0.021457672119140625,0.0,22.75,,,,,,,,,,,,,,,,,,,,,,,,,,,,,,,,,,,,,,,,
0.0,-0.2058555781841278,1.8769475221633911,0.0005921158008277416,0.22595913708209991,0.45548945665359497,0.0014191849622875452,0.08664107322692871,0.29509997367858887,7.068956620059907e-05,0.0,2.29489803314209,-1.588582992553711,-0.19175104796886444,13.0,0.0,2.2873878479003906,-0.4259347915649414,-0.3835020959377289,12.25,0.0,1.8825531005859375,0.0064373016357421875,-0.19175104796886444,14.0,0.0,1.9315481185913086,0.018596649169921875,-0.19175104796886444,13.75,0.0,2.18045711517334,-1.4766454696655273,0.0,16.25,0.0,1.8668174743652344,0.04470348358154297,0.0,23.0,,,,,,,,,,,,,,,,,,,,,,,,,,,,,,,,,,,,,,,,,,,,,,,,,,,,,,,
0.0,-0.11680883914232254,1.9071331024169922,0.0004684871528297663,0.3475581407546997,0.38393574953079224,0.0007562048849649727,0.18615880608558655,0.11521659791469574,-0.0004397108859848231,0.0,2.350330352783203,-0.9713172912597656,-0.3835020959377289,14.75,0.0,2.457261085510254,-1.0889768600463867,-0.3835020959377289,15.5,0.0,2.0710229873657227,-0.3962516784667969,-0.5752531439065933,21.5,0.0,2.239108085632324,-0.43201446533203125,-0.5752531439065933,16.5,0.0,1.9376277923583984,-0.2313852310180664,-0.5752531439065933,20.0,0.0,1.8589496612548828,-0.015377998352050781,-0.3835020959377289,21.75,0.0,1.818537712097168,0.08368492126464844,-0.3835020959377289,16.5,0.0,2.281665802001953,-1.3346672058105469,0.0,15.75,,,,,,,,,,,,,,,,,,,,,,,,,,,,,,,,,,,,,,,,,,,,,
0.0,-0.0600091814994812,1.9313912391662598,0.0004026774549856782,0.396066814661026,0.331473708152771,0.00038242037408053875,0.20923884212970734,0.006936587393283844,-0.0006792811909690499,0.0,2.208709716796875,-1.0557174682617188,0.19175104796886444,12.25,0.0,2.1926164627075195,-0.37086009979248047,-0.7670041918754578,17.25,0.0,1.999497413635254,-0.06365776062011719,-0.7670041918754578,23.5,0.0,2.08282470703125,-0.10013580322265625,-0.7670041918754578,25.0,0.0,1.922607421875,0.05829334259033203,-0.19175104796886444,21.5,0.0,1.8285512924194336,0.20706653594970703,-0.19175104796886444,13.75,0.0,1.8482208251953125,0.013947486877441406,0.0,24.75,0.0,1.907944679260254,-0.056862831115722656,0.0,23.0,,,,,,,,,,,,,,,,,,,,,,,,,,,,,,,,,,,,,,,,,,,,,
0.0,-0.03195863217115402,1.9427129030227661,0.0003617233596742153,0.3869774639606476,0.2536558508872986,8.68543575052172e-05,0.18032123148441315,-0.12037823349237442,-0.0008461173856630921,0.0,2.061009407043457,-1.637578010559082,-0.19175104796886444,13.25,0.0,2.1675825119018555,-1.259922981262207,-0.5752531439065933,16.75,0.0,2.1518468856811523,-1.1129379272460938,-0.5752531439065933,17.0,0.0,3.200411796569824,-0.3962516784667969,0.19175104796886444,12.5,0.0,1.9050836563110352,-0.07939338684082031,-0.7670041918754578,21.0,0.0,2.009153366088867,0.003933906555175781,-0.7670041918754578,18.5,0.0,1.839280128479004,0.09870529174804688,-0.5752531439065933,23.25,0.0,1.7699003219604492,0.28145313262939453,-0.5752531439065933,19.5,0.0,2.2902488708496094,-1.312851905822754,0.0,15.25,,,,,,,,,,,,,,,,,,,,,,,,,,,,,,,,,,,,,,,,
0.0,-0.026599079370498657,1.9477171897888184,0.000295594974886626,0.34117591381073,0.16427651047706604,-0.00021579471649602056,0.12450078129768372,-0.24608269333839417,-0.0010009331163018942,0.0,2.077817916870117,-1.2699365615844727,-0.19175104796886444,17.0,0.0,2.170085906982422,-1.2699365615844727,-0.19175104796886444,19.5,0.0,2.238035202026367,-1.289963722229004,-0.7670041918754578,13.5,0.0,1.8439292907714844,-0.1938343048095703,-0.7670041918754578,24.25,0.0,1.9658803939819336,-0.3107786178588867,-0.7670041918754578,17.25,0.0,1.7555952072143555,-0.08046627044677734,-0.19175104796886444,25.75,0.0,1.7867088317871094,-0.125885009765625,-0.19175104796886444,28.5,0.0,1.691579818725586,-0.042557716369628906,-0.19175104796886444,14.5,0.0,2.2974014282226562,-1.3396739959716797,0.0,15.5,0.0,3.151059150695801,-0.2617835998535156,0.0,12.25,,,,,,,,,,,,,,,,,,,,,,,,,,,,,,,,,,,
0.0,-0.14459848403930664,1.932874321937561,0.00014782522339373827,0.0984925925731659,-0.030880898237228394,-0.0007892673602327704,-0.08534203469753265,-0.5362305641174316,-0.0013330858200788498,0.0,2.0581483840942383,-1.3189315795898438,-0.19175104796886444,16.5,0.0,2.155780792236328,-1.3217926025390625,-0.19175104796886444,19.25,0.0,2.1986961364746094,-1.3632774353027344,-0.19175104796886444,14.0,0.0,1.954793930053711,-0.2893209457397461,-0.7670041918754578,14.75,0.0,1.681208610534668,0.03254413604736328,-0.19175104796886444,23.5,0.0,1.7273426055908203,0.020384788513183594,-0.19175104796886444,32.75,0.0,1.7502307891845703,0.010371208190917969,-0.19175104796886444,34.75,0.0,1.8142461776733398,-0.0017881393432617188,-0.7670041918754578,28.5,0.0,2.141118049621582,-1.2906789779663086,0.0,18.75,,,,,,,,,,,,,,,,,,,,,,,,,,,,,,,,,,,,,,,,
0.0,-0.1239689439535141,1.9124292135238647,4.067389090778306e-05,0.11165903508663177,-0.17868904769420624,-0.0011087370803579688,-0.06213698163628578,-0.6986113786697388,-0.0014634794788435102,0.0,2.0978450775146484,-1.200556755065918,-1.1505062878131866,15.5,0.0,2.189040184020996,-1.2145042419433594,-1.1505062878131866,16.25,0.0,1.947641372680664,-0.5536079406738281,-0.19175104796886444,13.75,0.0,1.8271207809448242,-0.14591217041015625,-0.3835020959377289,25.5,0.0,1.774907112121582,-0.05507469177246094,-0.3835020959377289,29.75,0.0,1.6633272171020508,0.1577138900756836,-0.3835020959377289,19.0,0.0,1.7316341400146484,0.06008148193359375,-0.3835020959377289,27.25,0.0,2.2881031036376953,-1.2831687927246094,0.0,15.5,,,,,,,,,,,,,,,,,,,,,,,,,,,,,,,,,,,,,,,,,,,,,
0.0,-0.14105302095413208,1.8797897100448608,-5.430280725704506e-05,0.06491217017173767,-0.3358651399612427,-0.001352979801595211,-0.09026716649532318,-0.8538937568664551,-0.001534164883196354,0.0,1.7523765563964844,-1.2431144714355469,-1.1505062878131866,12.25,0.0,1.9540786743164062,-1.3450384140014648,-0.19175104796886444,13.25,0.0,2.123236656188965,-1.280665397644043,-0.19175104796886444,12.0,0.0,1.7777681350708008,-0.3018379211425781,-0.3835020959377289,17.5,0.0,1.645803451538086,-0.03898143768310547,-0.3835020959377289,23.0,0.0,1.6683340072631836,-0.04363059997558594,-0.3835020959377289,28.75,0.0,1.6897916793823242,-0.05042552947998047,-0.3835020959377289,26.0,,,,,,,,,,,,,,,,,,,,,,,,,,,,,,,,,,,,,,,,,,,,,,,,,,
0.0,-0.24367165565490723,1.8681261539459229,-0.0001496798067819327,-0.10852684080600739,-0.393720805644989,-0.0014789587585255504,-0.21953149139881134,-0.8343632221221924,-0.001522955484688282,0.0,1.7277002334594727,-0.5965232849121094,-0.5752531439065933,14.0,0.0,1.6064643859863281,-0.06186962127685547,-0.3835020959377289,29.75,0.0,1.6440153121948242,-0.12946128845214844,-0.3835020959377289,23.25,0.0,1.6007423400878906,0.026106834411621094,-0.3835020959377289,26.75,0.0,1.520991325378418,0.13911724090576172,-0.3835020959377289,14.25,,,,,,,,,,,,,,,,,,,,,,,,,,,,,,,,,,,,,,,,,,,,,,,,,,,,,,,,,,,,
0.0,-0.28195619583129883,1.8505581617355347,-0.00023262137256097049,-0.17335206270217896,-0.42968133091926575,-0.001553256530314684,-0.2575070858001709,-0.7729747295379639,-0.0014836607733741403,0.0,2.0313262939453125,-1.2738704681396484,-0.3835020959377289,13.75,0.0,2.1622180938720703,-1.1726617813110352,-0.19175104796886444,13.0,0.0,1.7502307891845703,-0.31256675720214844,-0.3835020959377289,12.75,0.0,1.614689826965332,-0.25212764739990234,-0.3835020959377289,29.75,0.0,1.6483068466186523,-0.24175643920898438,-0.3835020959377289,26.0,0.0,1.502394676208496,0.42629241943359375,-0.5752531439065933,28.5,0.0,1.432657241821289,0.4527568817138672,-0.5752531439065933,20.0,,,,,,,,,,,,,,,,,,,,,,,,,,,,,,,,,,,,,,,,,,,,,,,,,,
0.0,-0.2866419851779938,1.8138319253921509,-0.0003012235392816365,-0.17048588395118713,-0.5095512866973877,-0.0016153599135577679,-0.22958213090896606,-0.7916273474693298,-0.0014392649754881859,0.0,1.754164695739746,-1.3682842254638672,-0.3835020959377289,12.25,0.0,1.932978630065918,-1.3049840927124023,-0.3835020959377289,12.0,0.0,1.6061067581176758,-0.3161430358886719,-0.3835020959377289,21.0,0.0,1.5538930892944336,-0.1666545867919922,-0.5752531439065933,26.25,0.0,1.5635490417480469,-0.24425983428955078,-0.5752531439065933,27.5,0.0,1.4945268630981445,-0.043272972106933594,-0.5752531439065933,17.0,,,,,,,,,,,,,,,,,,,,,,,,,,,,,,,,,,,,,,,,,,,,,,,,,,,,,,,
0.0,-0.33118754625320435,1.7742215394973755,-0.0003638023335952312,-0.23996686935424805,-0.555227518081665,-0.001643301686272025,-0.27285104990005493,-0.7415089011192322,-0.0013805364724248648,0.0,1.5696287155151367,-1.1930465698242188,-0.19175104796886444,13.25,0.0,1.6990900039672852,-1.4069080352783203,-0.3835020959377289,15.25,0.0,1.7505884170532227,-1.498103141784668,-0.3835020959377289,14.75,0.0,1.576066017150879,-0.5031824111938477,-0.3835020959377289,19.0,0.0,1.443028450012207,-0.2396106719970703,-0.5752531439065933,20.25,0.0,1.5181303024291992,-0.25212764739990234,-0.3835020959377289,25.75,0.0,1.4827251434326172,-0.2238750457763672,-0.5752531439065933,26.75,,,,,,,,,,,,,,,,,,,,,,,,,,,,,,,,,,,,,,,,,,,,,,,,,,
0.0,-0.30343925952911377,1.722564697265625,-0.0004381744656711817,-0.18780682981014252,-0.588047206401825,-0.0016664675204083323,-0.21375763416290283,-0.6716161966323853,-0.0013242607237771153,0.0,1.5424489974975586,-0.37300586700439453,-0.5752531439065933,22.75,0.0,1.5785694122314453,-0.3472566604614258,-0.19175104796886444,26.25,0.0,1.6078948974609375,-0.3336668014526367,-0.19175104796886444,20.5,0.0,1.2617111206054688,0.5639791488647461,-0.3835020959377289,15.0,0.0,1.9497871398925781,-1.3904571533203125,0.0,14.5,0.0,1.590728759765625,-0.05435943603515625,0.0,25.25,,,,,,,,,,,,,,,,,,,,,,,,,,,,,,,,,,,,,,,,,,,,,,,,,,,,,,,
0.0,-0.26919835805892944,1.6930742263793945,-0.00046574848238378763,-0.12468972057104111,-0.5768392086029053,-0.0016462472267448902,-0.15086349844932556,-0.5609370470046997,-0.0012496114941313863,0.0,1.4040470123291016,-0.331878662109375,-0.3835020959377289,23.75,0.0,1.4537572860717773,-0.40018558502197266,-0.5752531439065933,20.0,0.0,1.376509666442871,-0.2524852752685547,-0.3835020959377289,20.75,0.0,3.102421760559082,-0.32401084899902344,0.19175104796886444,14.25,0.0,1.9605159759521484,-1.3425350189208984,0.0,13.25,0.0,1.5614032745361328,-0.06401538848876953,0.0,24.5,0.0,1.741647720336914,-0.09226799011230469,0.0,27.0,0.0,1.667618751525879,-0.052928924560546875,0.0,27.5,,,,,,,,,,,,,,,,,,,,,,,,,,,,,,,,,,,,,,,,,,,,,
0.0,-0.313142865896225,1.6394977569580078,-0.0004971213638782501,-0.19475887715816498,-0.6156858801841736,-0.0016205566935241222,-0.20096524059772491,-0.5307540893554688,-0.0011713748099282384,0.0,1.404404640197754,-0.057220458984375,-0.19175104796886444,26.0,0.0,1.4619827270507812,-0.13267993927001953,-0.19175104796886444,20.0,0.0,1.3704299926757812,-0.0025033950805664062,-0.19175104796886444,25.0,0.0,1.3114213943481445,0.04184246063232422,-0.19175104796886444,16.75,0.0,1.576066017150879,-0.13911724090576172,0.0,24.75,0.0,1.3103485107421875,0.0997781753540039,0.0,13.25,0.0,1.3840198516845703,0.09298324584960938,0.0,24.0,0.0,1.463770866394043,0.07474422454833984,0.0,26.0,,,,,,,,,,,,,,,,,,,,,,,,,,,,,,,,,,,,,,,,,,,,,
0.0,-0.4192662239074707,1.5841559171676636,-0.0005027407896704972,-0.3700399398803711,-0.6462810039520264,-0.0015673779416829348,-0.3419046700000763,-0.4841979742050171,-0.0010823870543390512,0.0,1.3049840927124023,-0.40984153747558594,-0.19175104796886444,22.5,0.0,1.316070556640625,-0.3311634063720703,-0.19175104796886444,22.5,0.0,1.4312267303466797,-0.26607513427734375,-0.19175104796886444,12.5,0.0,1.2913942337036133,-0.18525123596191406,-0.19175104796886444,13.75,0.0,3.111720085144043,-0.16057491302490234,0.3835020959377289,12.75,0.0,1.6057491302490234,-0.3669261932373047,0.0,18.25,0.0,1.5506744384765625,-0.27823448181152344,0.0,24.25,0.0,1.456618309020996,0.022172927856445312,0.0,25.5,0.0,1.3117790222167969,0.0997781753540039,0.0,14.25,0.0,1.3793706893920898,0.12052059173583984,0.0,23.75,,,,,,,,,,,,,,,,,,,,,,,,,,,,,,,,,,,
0.0,-0.45424962043762207,1.5290695428848267,-0.0005867746658623219,-0.4082490801811218,-0.6597816348075867,-0.0015939385630190372,-0.3552122116088867,-0.4295664429664612,-0.0010411010589450598,0.0,1.1905431747436523,-0.8490085601806641,0.19175104796886444,18.75,0.0,1.296401023864746,-0.15413761138916016,0.19175104796886444,22.25,0.0,1.3257265090942383,-0.13840198516845703,0.19175104796886444,29.5,0.0,1.3346672058105469,-0.10192394256591797,0.19175104796886444,27.75,0.0,1.4204978942871094,-0.02968311309814453,0.3835020959377289,17.0,0.0,1.548171043395996,-0.2582073211669922,0.0,23.75,0.0,1.3124942779541016,0.0883340835571289,0.0,15.0,0.0,1.3779401779174805,0.09012222290039062,0.0,24.25,0.0,1.4380216598510742,0.060439109802246094,0.0,26.0,,,,,,,,,,,,,,,,,,,,,,,,,,,,,,,,,,,,,,,,
0.0,-0.4725727438926697,1.466966986656189,-0.0006449719658121467,-0.40743115544319153,-0.6815992593765259,-0.0015801710542291403,-0.3292093873023987,-0.39890778064727783,-0.0009794493671506643,0.0,1.5485286712646484,-1.3611316680908203,0.19175104796886444,15.0,0.0,1.6325712203979492,-1.4519691467285156,0.19175104796886444,17.75,0.0,1.6722679138183594,-1.4787912368774414,0.19175104796886444,14.5,0.0,1.5238523483276367,-0.7531642913818359,0.5752531439065933,14.75,0.0,1.4448165893554688,-0.5400180816650391,0.5752531439065933,23.25,0.0,1.4258623123168945,-0.3701448440551758,0.19175104796886444,24.75,0.0,1.3850927352905273,-0.20241737365722656,0.19175104796886444,18.75,0.0,1.511693000793457,-0.22780895233154297,0.0,21.75,0.0,1.3779401779174805,0.043272972106933594,0.0,23.25,0.0,1.4258623123168945,0.03147125244140625,0.0,25.0,,,,,,,,,,,,,,,,,,,,,,,,,,,,,,,,,,,
0.0,-0.41095978021621704,1.4500927925109863,-0.0006647456903010607,-0.2933964431285858,-0.5839296579360962,-0.0015361682744696736,-0.23464956879615784,-0.21411116421222687,-0.0009120961767621338,0.0,1.5217065811157227,-0.7174015045166016,0.5752531439065933,13.0,0.0,1.476287841796875,-0.17023086547851562,0.19175104796886444,17.75,0.0,1.3890266418457031,0.12445449829101562,0.19175104796886444,23.25,0.0,1.3049840927124023,0.14662742614746094,0.19175104796886444,12.75,0.0,1.3625621795654297,0.1494884490966797,0.19175104796886444,21.75,0.0,1.6089677810668945,-0.37729740142822266,0.0,14.0,0.0,1.5038251876831055,-0.23281574249267578,0.0,21.0,0.0,1.3715028762817383,0.01823902130126953,0.0,23.0,0.0,1.416921615600586,-0.033974647521972656,0.0,24.5,0.0,1.3107061386108398,0.07939338684082031,0.0,14.5,,,,,,,,,,,,,,,,,,,,,,,,,,,,,,,,,,,
0.0,-0.4236508309841156,1.4100159406661987,-0.000665379804559052,-0.30471333861351013,-0.5375901460647583,-0.001462048152461648,-0.24190862476825714,-0.10988204926252365,-0.000828511780127883,0.0,1.5721321105957031,-0.5385875701904297,0.5752531439065933,13.5,0.0,1.5102624893188477,-0.33402442932128906,0.0,20.75,0.0,1.361846923828125,0.042557716369628906,0.0,22.5,0.0,1.4061927795410156,0.041484832763671875,0.0,23.75,0.0,1.3085603713989258,0.0890493392944336,0.0,14.25,,,,,,,,,,,,,,,,,,,,,,,,,,,,,,,,,,,,,,,,,,,,,,,,,,,,,,,,,,,,
0.0,-0.41846683621406555,1.4187533855438232,-0.0006486966158263385,-0.3138399124145508,-0.36113178730010986,-0.0013861763291060925,-0.27649855613708496,0.16450166702270508,-0.0007555382326245308,0.0,1.7595291137695312,-1.3797283172607422,0.19175104796886444,12.75,0.0,1.8199682235717773,-1.4816522598266602,0.19175104796886444,15.0,0.0,1.7266273498535156,-0.32579898834228516,0.9587552398443222,20.5,0.0,1.8128156661987305,-0.3848075866699219,0.9587552398443222,13.75,0.0,1.603245735168457,-0.06580352783203125,0.9587552398443222,20.75,0.0,1.307845115661621,0.10406970977783203,0.0,15.0,0.0,1.359701156616211,0.08797645568847656,0.0,23.5,0.0,1.3829469680786133,0.09620189666748047,0.0,24.75,,,,,,,,,,,,,,,,,,,,,,,,,,,,,,,,,,,,,,,,,,,,,
0.0,-0.5590311884880066,1.442950963973999,-0.0005749363335780799,-0.5538007616996765,-0.21093715727329254,-0.001244978397153318,-0.4919564127922058,0.36318665742874146,-0.0006446177721954882,0.0,1.930832862854004,-1.5549659729003906,1.1505062878131866,12.75,0.0,1.6322135925292969,-0.4162788391113281,1.1505062878131866,13.25,0.0,1.3064146041870117,0.1398324966430664,0.0,15.25,,,,,,,,,,,,,,,,,,,,,,,,,,,,,,,,,,,,,,,,,,,,,,,,,,,,,,,,,,,,,,,,,,,,,,
0.0,-0.487917423248291,1.483941912651062,-0.0005707978270947933,-0.4052122235298157,-0.03520160913467407,-0.001168239745311439,-0.3446245789527893,0.5281693339347839,-0.0005710790865123272,,,,,,,,,,,,,,,,,,,,,,,,,,,,,,,,,,,,,,,,,,,,,,,,,,,,,,,,,,,,,,,,,,,,,,,,,,,,,,,,,,,,,
0.0,-0.532620906829834,1.4925113916397095,-0.0006589354015886784,-0.44963377714157104,0.04205584526062012,-0.0011916892835870385,-0.35985344648361206,0.5640952587127686,-0.0005533813964575529,0.0,1.6536712646484375,-0.30863285064697266,0.9587552398443222,12.5,0.0,1.4119148254394531,-0.0661611557006836,0.0,23.25,,,,,,,,,,,,,,,,,,,,,,,,,,,,,,,,,,,,,,,,,,,,,,,,,,,,,,,,,,,,,,,,,,,,,,,,,,,
0.0,-0.5845833420753479,1.5790516138076782,-0.0006180055788718164,-0.5226492881774902,0.2572132349014282,-0.0010770858498290181,-0.4255200922489166,0.7652825713157654,-0.00046471209498122334,0.0,1.6243457794189453,0.13697147369384766,0.7670041918754578,12.75,0.0,1.3936758041381836,0.03540515899658203,0.0,19.5,,,,,,,,,,,,,,,,,,,,,,,,,,,,,,,,,,,,,,,,,,,,,,,,,,,,,,,,,,,,,,,,,,,,,,,,,,,
0.0,-0.6706334352493286,1.6353219747543335,-0.0006611097487621009,-0.6373844146728516,0.3986899256706238,-0.0010534808970987797,-0.5085302591323853,0.8618798851966858,-0.00042871548794209957,0.0,1.5263557434082031,-0.4938840866088867,0.3835020959377289,12.25,0.0,1.6318559646606445,-0.3426074981689453,0.3835020959377289,16.25,0.0,1.7341375350952148,-0.13947486877441406,0.5752531439065933,14.5,,,,,,,,,,,,,,,,,,,,,,,,,,,,,,,,,,,,,,,,,,,,,,,,,,,,,,,,,,,,,,,,,,,,,,
0.0,-0.7369145750999451,1.6795003414154053,-0.0007686013705097139,-0.6882374286651611,0.48487791419029236,-0.001096352469176054,0.0,0.0,0.0,0.0,1.6139745712280273,-0.26106834411621094,0.3835020959377289,14.25,0.0,1.6829967498779297,-0.07331371307373047,0.3835020959377289,20.75,0.0,1.7237663269042969,0.2728700637817383,0.3835020959377289,20.0,0.0,1.8146038055419922,0.3529787063598633,0.3835020959377289,13.25,,,,,,,,,,,,,,,,,,,,,,,,,,,,,,,,,,,,,,,,,,,,,,,,,,,,,,,,,,,,,,,,,
0.0,-0.7746254205703735,1.7454622983932495,-0.0008328076801262796,-0.6439930200576782,0.5227981209754944,-0.0010472842259332538,0.029710007831454277,0.04254557937383652,2.5798888600547798e-05,0.0,1.9834041595458984,-1.317143440246582,0.9587552398443222,18.25,0.0,2.0427703857421875,-1.3822317123413086,0.19175104796886444,15.5,0.0,1.9723176956176758,-1.124739646911621,0.9587552398443222,15.75,0.0,1.875758171081543,-0.25391578674316406,0.19175104796886444,13.75,0.0,1.6372203826904297,0.008225440979003906,0.3835020959377289,14.25,0.0,1.6747713088989258,0.023245811462402344,0.3835020959377289,21.0,0.0,1.7209053039550781,-0.03504753112792969,0.3835020959377289,20.75,0.0,1.8478631973266602,-1.239180564880371,0.0,12.75,0.0,1.993417739868164,-1.4941692352294922,0.0,13.0,,,,,,,,,,,,,,,,,,,,,,,,,,,,,,,,,,,,,,,,
0.0,-0.8388761878013611,1.797954797744751,-0.0009374071378260851,-0.32051101326942444,0.2635263502597809,-0.0005223521729931235,0.0,0.0,0.0,0.0,2.09963321685791,-1.3546943664550781,0.19175104796886444,17.0,0.0,2.2569894790649414,-0.5993843078613281,0.19175104796886444,16.75,0.0,2.0999908447265625,-0.4101991653442383,0.19175104796886444,17.5,0.0,1.7527341842651367,-0.2485513687133789,0.19175104796886444,20.5,0.0,1.783132553100586,-0.2560615539550781,0.19175104796886444,24.5,0.0,1.8868446350097656,-0.2900362014770508,0.19175104796886444,20.0,0.0,2.081751823425293,-1.4101266860961914,0.0,16.75,,,,,,,,,,,,,,,,,,,,,,,,,,,,,,,,,,,,,,,,,,,,,,,,,,
0.0,-0.7204509377479553,1.868186116218567,-0.0008127840119414032,-0.1039794534444809,0.34912705421447754,-0.0003355520311743021,0.15642520785331726,0.08025562763214111,9.690796287031844e-05,0.0,2.095341682434082,-1.450181007385254,0.19175104796886444,14.25,0.0,2.1343231201171875,-1.1637210845947266,0.3835020959377289,12.0,0.0,1.8500089645385742,-0.25391578674316406,0.19175104796886444,16.75,0.0,1.6690492630004883,0.009298324584960938,0.19175104796886444,12.5,0.0,1.7284154891967773,0.0032186508178710938,0.19175104796886444,21.75,0.0,1.7552375793457031,-0.05328655242919922,0.19175104796886444,22.75,0.0,2.0935535430908203,-1.5821456909179688,0.0,13.5,0.0,2.100348472595215,-1.4137029647827148,0.0,17.0,0.0,2.0803213119506836,-1.2584924697875977,0.0,15.0,0.0,1.8811225891113281,-0.1119375228881836,0.0,15.25,0.0,1.7595291137695312,-0.054717063903808594,0.0,20.5,,,,,,,,,,,,,,,,,,,,,,,,,,,,,,
0.0,-0.6198312044143677,1.9239286184310913,-0.000741841271519661,0.06873476505279541,0.39667072892189026,-0.0002173433022107929,0.2708820402622223,0.11379210650920868,0.00015274815086741,0.0,2.2755861282348633,-1.1562108993530273,0.5752531439065933,14.25,0.0,1.7434358596801758,0.06973743438720703,0.19175104796886444,15.25,0.0,1.7784833908081055,0.0940561294555664,0.19175104796886444,17.25,0.0,1.8510818481445312,0.24712085723876953,0.19175104796886444,12.75,0.0,2.045273780822754,-1.3507604598999023,0.0,16.5,0.0,1.7627477645874023,0.13053417205810547,0.0,21.25,0.0,1.8489360809326172,0.2582073211669922,0.0,17.0,,,,,,,,,,,,,,,,,,,,,,,,,,,,,,,,,,,,,,,,,,,,,,,,,,
0.0,-0.5563298463821411,1.9957741498947144,-0.0004947243724018335,0.16413159668445587,0.48479050397872925,6.714042683597654e-05,0.30911189317703247,0.20519572496414185,0.00028691976331174374,0.0,2.167224884033203,-1.3704299926757812,0.3835020959377289,12.5,0.0,2.2362470626831055,-1.3911724090576172,0.3835020959377289,18.5,0.0,2.257704734802246,-1.4001131057739258,0.3835020959377289,18.5,0.0,1.7795562744140625,0.7013082504272461,0.19175104796886444,12.75,0.0,1.8063783645629883,0.6952285766601562,0.19175104796886444,14.5,0.0,2.0438432693481445,-1.3965368270874023,0.0,16.0,0.0,2.088189125061035,-1.4744997024536133,0.0,19.25,0.0,1.7713308334350586,0.09834766387939453,0.0,20.75,0.0,1.8546581268310547,0.19562244415283203,0.0,17.0,,,,,,,,,,,,,,,,,,,,,,,,,,,,,,,,,,,,,,,,
0.0,-0.5260211825370789,2.0080556869506836,-0.0003695738851092756,0.21842060983181,0.42092010378837585,0.00021032232325524092,0.33652305603027344,0.09872608631849289,0.00034432849497534335,0.0,1.80816650390625,-0.48172473907470703,0.19175104796886444,17.75,0.0,1.7791986465454102,-0.3883838653564453,0.19175104796886444,21.25,0.0,1.7627477645874023,-0.26786327362060547,0.19175104796886444,17.0,0.0,2.1268129348754883,-1.410841941833496,0.0,19.25,0.0,2.1404027938842773,-1.5299320220947266,0.0,16.75,0.0,2.1175146102905273,-1.273512840270996,0.0,15.75,0.0,1.7262697219848633,-0.11658668518066406,0.0,19.0,0.0,1.7774105072021484,-0.001430511474609375,0.0,21.5,0.0,1.8593072891235352,0.10120868682861328,0.0,17.5,,,,,,,,,,,,,,,,,,,,,,,,,,,,,,,,,,,,,,,,
0.0,-0.4603908061981201,2.0242652893066406,-0.0002701152698136866,0.3128582239151001,0.3858884572982788,0.00031992298318073153,0.38626471161842346,0.044909171760082245,0.0003818385594058782,0.0,2.2916793823242188,-1.0936260223388672,0.19175104796886444,13.75,0.0,1.9823312759399414,-0.19061565399169922,0.19175104796886444,17.25,0.0,1.8274784088134766,-0.13589859008789062,0.19175104796886444,21.5,0.0,1.8628835678100586,-0.1176595687866211,0.19175104796886444,29.0,0.0,1.8818378448486328,-0.10657310485839844,0.19175104796886444,27.25,0.0,2.116084098815918,-1.4390945434570312,0.0,19.0,0.0,2.156496047973633,-1.5170574188232422,0.0,16.75,0.0,2.0885467529296875,-1.2906789779663086,0.0,15.0,0.0,2.0291805267333984,-0.3540515899658203,0.0,17.25,0.0,1.7580986022949219,-0.13554096221923828,0.0,20.0,0.0,1.8131732940673828,-0.10371208190917969,0.0,24.0,0.0,1.8696784973144531,-0.11587142944335938,0.0,21.0,,,,,,,,,,,,,,,,,,,,,,,,,
0.0,-0.3643493950366974,2.06266713142395,-0.00020057204528711736,0.4420096278190613,0.392347514629364,0.0003935245331376791,0.4564531445503235,0.04273369535803795,0.00039973275852389634,0.0,2.4036169052124023,-0.9863376617431641,0.19175104796886444,13.25,0.0,2.4422407150268555,-1.0857582092285156,0.3835020959377289,12.25,0.0,1.7799139022827148,0.0997781753540039,0.19175104796886444,14.5,0.0,1.8210411071777344,0.16164779663085938,0.19175104796886444,18.5,0.0,1.8700361251831055,0.3376007080078125,0.19175104796886444,17.0,0.0,1.990199089050293,0.3694295883178711,0.19175104796886444,12.75,0.0,2.1218061447143555,-1.4401674270629883,0.0,18.5,0.0,2.1647214889526367,-1.4934539794921875,0.0,16.5,0.0,2.1071434020996094,-1.2481212615966797,0.0,17.5,0.0,2.0127296447753906,-0.45740604400634766,0.0,17.75,0.0,1.7781257629394531,-0.06508827209472656,0.0,18.0,0.0,1.8296241760253906,-0.10263919830322266,0.0,22.75,0.0,1.873612403869629,-0.1455545425415039,0.0,20.25,,,,,,,,,,,,,,,,,,,,
0.0,-0.4561738967895508,2.1164438724517822,-0.00012850333587266505,0.2870992124080658,0.4055064618587494,0.0004628373426385224,0.29983195662498474,0.056645557284355164,0.0004144458507653326,0.0,2.454042434692383,-0.9638071060180664,0.19175104796886444,13.75,0.0,2.5348663330078125,-1.009225845336914,0.19175104796886444,15.0,0.0,2.590298652648926,-1.1222362518310547,0.19175104796886444,12.5,0.0,1.8650293350219727,-0.0940561294555664,0.3835020959377289,17.25,0.0,1.9233226776123047,0.03540515899658203,0.19175104796886444,18.0,0.0,2.02023983001709,0.10693073272705078,0.19175104796886444,12.5,0.0,2.142190933227539,-1.453399658203125,0.0,18.25,0.0,2.166867256164551,-1.5202760696411133,0.0,17.25,0.0,2.1822452545166016,-1.12152099609375,0.0,15.75,0.0,2.0252466201782227,-0.20635128021240234,0.0,17.0,0.0,1.8002986907958984,-0.14412403106689453,0.0,16.5,0.0,1.8432140350341797,-0.12946128845214844,0.0,22.5,0.0,1.8754005432128906,-0.1405477523803711,0.0,20.75,,,,,,,,,,,,,,,,,,,,
0.0,-0.4262561500072479,2.120875120162964,-7.64023425290361e-05,0.31412142515182495,0.3623519539833069,0.0005076127708889544,0.29890719056129456,0.00728144496679306,0.00041580008110031486,0.0,2.178668975830078,-1.4673471450805664,0.19175104796886444,16.75,0.0,2.2287368774414062,-1.497030258178711,0.19175104796886444,17.25,0.0,1.8360614776611328,-0.007510185241699219,0.3835020959377289,13.75,0.0,1.886129379272461,0.047206878662109375,0.3835020959377289,21.75,0.0,1.9150972366333008,0.1004934310913086,0.3835020959377289,22.5,0.0,1.9884109497070312,0.18131732940673828,0.3835020959377289,18.0,0.0,2.1915435791015625,-1.4119148254394531,0.0,18.5,0.0,2.1904706954956055,-1.497030258178711,0.0,18.25,0.0,2.189040184020996,-1.1440515518188477,0.0,15.0,,,,,,,,,,,,,,,,,,,,,,,,,,,,,,,,,,,,,,,,
0.0,-0.3472677171230316,2.1278417110443115,-2.5371306037413888e-05,0.40960627794265747,0.3207401633262634,0.000546623021364212,0.35157206654548645,-0.04167507216334343,0.0004141519602853805,0.0,2.329587936401367,-1.359701156616211,0.3835020959377289,13.0,0.0,2.2906064987182617,-1.1519193649291992,0.19175104796886444,12.75,0.0,2.1593570709228516,-0.8296966552734375,0.19175104796886444,13.0,0.0,1.8585920333862305,0.012516975402832031,0.3835020959377289,19.0,0.0,1.9065141677856445,-0.006794929504394531,0.3835020959377289,27.25,0.0,1.9261837005615234,-0.023245811462402344,0.19175104796886444,27.25,0.0,1.9955635070800781,-0.03039836883544922,0.19175104796886444,22.5,0.0,2.2573471069335938,-1.335740089416504,0.0,18.0,0.0,2.2788047790527344,-1.4015436172485352,0.0,18.75,0.0,2.228379249572754,-1.0385513305664062,0.0,14.75,,,,,,,,,,,,,,,,,,,,,,,,,,,,,,,,,,,
0.0,-0.22320125997066498,2.1553215980529785,2.0232624592608772e-05,0.5647436380386353,0.30724862217903137,0.0005762311629951,0.4456650912761688,-0.06006456911563873,0.0004079646314494312,0.0,2.349972724914551,-1.124739646911621,0.19175104796886444,17.25,0.0,2.376437187194824,-1.2123584747314453,0.19175104796886444,17.0,0.0,2.1851062774658203,-0.5586147308349609,0.19175104796886444,13.75,0.0,1.9969940185546875,0.03039836883544922,0.19175104796886444,25.0,0.0,2.0095109939575195,0.013232231140136719,0.19175104796886444,30.25,0.0,2.0238161087036133,0.03039836883544922,0.19175104796886444,27.0,0.0,2.256631851196289,-1.3414621353149414,0.0,18.0,0.0,2.2101402282714844,-1.0432004928588867,0.0,15.0,0.0,2.000570297241211,-0.0032186508178710938,0.0,25.0,,,,,,,,,,,,,,,,,,,,,,,,,,,,,,,,,,,,,,,,
0.0,-0.2344270497560501,2.1921651363372803,6.331041367957368e-05,0.504385232925415,0.3010953366756439,0.0006006298935972154,0.36350706219673157,-0.06192071735858917,0.0003995329316239804,0.0,2.4039745330810547,-1.1937618255615234,0.19175104796886444,13.0,0.0,2.327084541320801,-1.0378360748291016,0.19175104796886444,12.75,0.0,2.2559165954589844,-0.7349252700805664,0.19175104796886444,14.0,0.0,1.9050836563110352,0.1666545867919922,0.19175104796886444,19.0,0.0,1.9551515579223633,0.33652782440185547,0.19175104796886444,20.0,0.0,2.0334720611572266,0.3733634948730469,0.19175104796886444,17.0,0.0,1.999497413635254,0.045418739318847656,0.0,25.0,,,,,,,,,,,,,,,,,,,,,,,,,,,,,,,,,,,,,,,,,,,,,,,,,,
0.0,-0.11672749370336533,2.206134796142578,0.00010613095946609974,0.6408523321151733,0.3036096394062042,0.000623353582341224,0.4418407678604126,-0.03397613391280174,0.00039129811921156943,0.0,2.3653507232666016,-0.8622407913208008,0.19175104796886444,13.0,0.0,2.1725893020629883,-0.5339384078979492,0.3835020959377289,15.25,0.0,2.034902572631836,-0.06580352783203125,0.19175104796886444,25.5,0.0,1.9648075103759766,0.050067901611328125,0.19175104796886444,25.25,0.0,1.9876956939697266,0.013947486877441406,0.19175104796886444,29.0,0.0,1.885056495666504,0.07796287536621094,0.19175104796886444,13.0,0.0,1.9397735595703125,0.02753734588623047,0.0,26.5,0.0,1.9987821578979492,0.04220008850097656,0.0,26.5,,,,,,,,,,,,,,,,,,,,,,,,,,,,,,,,,,,,,,,,,,,,,
0.0,-0.06596697866916656,2.206190824508667,0.00013752805534750223,0.657732367515564,0.27797919511795044,0.0006310000899247825,0.4193444550037384,-0.04312519729137421,0.0003752035554498434,0.0,2.3370981216430664,-1.3489723205566406,0.3835020959377289,13.5,0.0,1.9479990005493164,0.19419193267822266,-0.19175104796886444,20.5,0.0,1.9626617431640625,0.3154277801513672,-0.19175104796886444,23.75,0.0,1.9758939743041992,0.48995018005371094,-0.19175104796886444,22.0,0.0,1.8428564071655273,0.03325939178466797,0.0,16.0,0.0,1.9150972366333008,0.02682209014892578,0.0,24.25,0.0,1.954793930053711,0.00035762786865234375,0.0,26.0,0.0,2.009153366088867,-0.02002716064453125,0.0,26.75,,,,,,,,,,,,,,,,,,,,,,,,,,,,,,,,,,,,,,,,,,,,,
0.0,-0.015186624601483345,2.212369680404663,0.00016942639194894582,0.6683778762817383,0.24546438455581665,0.0006352174677886069,0.3930715024471283,-0.07205206155776978,0.00035765059874393046,0.0,2.314925193786621,-1.1372566223144531,0.3835020959377289,15.5,0.0,2.35140323638916,-1.2052059173583984,0.3835020959377289,13.5,0.0,2.2094249725341797,-0.8128881454467773,0.19175104796886444,13.0,0.0,2.0456314086914062,0.003933906555175781,-0.19175104796886444,17.5,0.0,1.9336938858032227,0.07796287536621094,-0.19175104796886444,20.25,0.0,1.9644498825073242,0.0711679458618164,-0.19175104796886444,21.75,0.0,1.9261837005615234,0.03039836883544922,0.0,24.25,0.0,1.9583702087402344,-0.00286102294921875,0.0,26.5,0.0,2.010226249694824,-0.03647804260253906,0.0,26.75,,,,,,,,,,,,,,,,,,,,,,,,,,,,,,,,,,,,,,,,
0.0,0.06464435160160065,2.2166244983673096,0.00019529988639988005,0.7204920649528503,0.2099042534828186,0.0006306091672740877,0.40175384283065796,-0.1030658483505249,0.00033633969724178314,0.0,2.4193525314331055,-1.4029741287231445,0.19175104796886444,17.5,0.0,2.43222713470459,-1.2059211730957031,0.19175104796886444,14.5,0.0,2.44903564453125,-1.2903213500976562,0.19175104796886444,20.0,0.0,1.902937889099121,0.43022632598876953,-0.19175104796886444,12.75,0.0,1.9040107727050781,0.6755590438842773,-0.19175104796886444,18.5,0.0,1.9083023071289062,0.7696151733398438,-0.19175104796886444,19.5,0.0,2.007722854614258,-0.07009506225585938,0.0,27.25,0.0,1.9555091857910156,-0.028252601623535156,0.0,27.0,,,,,,,,,,,,,,,,,,,,,,,,,,,,,,,,,,,,,,,,,,,,,
0.0,0.04756631702184677,2.219167470932007,0.00020089578174520284,0.6185474395751953,0.1964752972126007,0.0006065548514015973,0.2906704246997833,-0.0914682149887085,0.00030668306862935424,0.0,2.462625503540039,-0.9627342224121094,-0.19175104796886444,13.5,0.0,2.505183219909668,-1.0238885879516602,-0.19175104796886444,15.0,0.0,1.9701719284057617,0.023245811462402344,-0.19175104796886444,22.25,0.0,1.99127197265625,-0.013947486877441406,-0.19175104796886444,26.5,0.0,2.0241737365722656,-0.04506111145019531,-0.19175104796886444,22.5,0.0,2.010941505432129,-0.10979175567626953,0.0,29.0,,,,,,,,,,,,,,,,,,,,,,,,,,,,,,,,,,,,,,,,,,,,,,,,,,,,,,,
0.0,0.14676900207996368,2.198728084564209,0.00022678100503981113,0.6889142394065857,0.09543503075838089,0.0005963904550299048,0.3158266842365265,-0.21618258953094482,0.0002836535277310759,0.0,2.491593360900879,-1.2230873107910156,-0.19175104796886444,12.75,0.0,2.538442611694336,-1.3060569763183594,0.3835020959377289,12.25,0.0,2.0145177841186523,-0.0883340835571289,-0.19175104796886444,26.0,0.0,1.9687414169311523,0.022172927856445312,-0.19175104796886444,27.25,0.0,1.9826889038085938,-0.033974647521972656,-0.19175104796886444,30.75,0.0,1.887202262878418,0.09047985076904297,-0.19175104796886444,15.0,0.0,1.9783973693847656,-0.032901763916015625,0.0,28.5,0.0,2.012014389038086,-0.060439109802246094,0.0,28.75,,,,,,,,,,,,,,,,,,,,,,,,,,,,,,,,,,,,,,,,,,,,,
0.0,0.1701125204563141,2.1770107746124268,0.0002464329299982637,0.6330946683883667,0.011490564793348312,0.0005807155393995345,0.23905162513256073,-0.30000269412994385,0.0002594469115138054,0.0,1.9061565399169922,0.08940696716308594,-0.19175104796886444,13.75,0.0,1.9555091857910156,0.09226799011230469,-0.19175104796886444,14.5,0.0,2.0134449005126953,-0.11408329010009766,0.0,26.25,0.0,1.9497871398925781,0.023245811462402344,0.0,24.5,0.0,1.9658803939819336,-0.04184246063232422,0.0,27.25,,,,,,,,,,,,,,,,,,,,,,,,,,,,,,,,,,,,,,,,,,,,,,,,,,,,,,,,,,,,
0.0,0.3250325918197632,2.136671304702759,0.0002569388598203659,0.7818130850791931,-0.10663031041622162,0.0005530872731469572,0.3270813822746277,-0.4110557436943054,0.00023025214613880962,0.0,2.3546218872070312,-1.157999038696289,-0.19175104796886444,13.5,0.0,2.3818016052246094,-1.2230873107910156,-0.19175104796886444,13.5,0.0,1.8836259841918945,0.5178451538085938,-0.19175104796886444,17.0,0.0,1.827836036682129,0.5446672439575195,-0.19175104796886444,15.5,0.0,2.019166946411133,-0.11587142944335938,0.0,26.25,0.0,1.9544363021850586,0.02682209014892578,0.0,23.75,0.0,1.9730329513549805,-0.036835670471191406,0.0,27.0,,,,,,,,,,,,,,,,,,,,,,,,,,,,,,,,,,,,,,,,,,,,,,,,,,
0.0,0.2926294207572937,2.1181139945983887,0.0002631888200994581,0.6365869045257568,-0.15581336617469788,0.0005255754804238677,0.18539029359817505,-0.42705458402633667,0.00020379821944516152,0.0,2.3370981216430664,-1.1483430862426758,-0.19175104796886444,17.5,0.0,2.361774444580078,-1.2044906616210938,-0.19175104796886444,16.75,0.0,2.2766590118408203,-0.9001493453979492,-0.19175104796886444,13.5,0.0,2.078890800476074,-0.4398822784423828,-0.19175104796886444,12.25,0.0,1.902937889099121,0.091552734375,-0.19175104796886444,17.25,0.0,1.8568038940429688,0.18453598022460938,-0.19175104796886444,18.0,0.0,2.379298210144043,-1.1125802993774414,0.0,16.75,0.0,2.4247169494628906,-1.2259483337402344,0.0,16.25,0.0,1.8603801727294922,0.1609325408935547,0.0,12.5,0.0,1.9311904907226562,0.09262561798095703,0.0,22.75,,,,,,,,,,,,,,,,,,,,,,,,,,,,,,,,,,,
0.0,0.23986724019050598,2.0980184078216553,0.0002502349962014705,0.47736597061157227,-0.19126169383525848,0.00047967644059099257,0.04933789372444153,-0.42078858613967896,0.00016977681661956012,0.0,1.983046531677246,-0.18274784088134766,-0.19175104796886444,12.75,0.0,1.8199682235717773,0.11408329010009766,-0.19175104796886444,18.5,0.0,1.8503665924072266,0.10228157043457031,-0.19175104796886444,25.0,0.0,1.8754005432128906,0.07009506225585938,-0.19175104796886444,23.25,0.0,2.372145652770996,-1.1093616485595703,0.0,16.75,0.0,2.4172067642211914,-1.2298822402954102,0.0,16.75,,,,,,,,,,,,,,,,,,,,,,,,,,,,,,,,,,,,,,,,,,,,,,,,,,,,,,,
0.0,0.25621649622917175,2.072103977203369,0.000264348229393363,0.4348982274532318,-0.23391731083393097,0.00046189449494704604,0.013506479561328888,-0.4194263219833374,0.00015204321243800223,0.0,2.1446943283081055,-1.200556755065918,-0.5752531439065933,12.5,0.0,2.297043800354004,-1.221299171447754,-0.19175104796886444,17.75,0.0,2.3621320724487305,-1.2009143829345703,-0.19175104796886444,16.25,0.0,1.8249750137329102,-0.4194974899291992,-1.1505062878131866,21.75,0.0,1.9526481628417969,-0.4824399948120117,-0.9587552398443222,13.5,0.0,1.7974376678466797,-0.31828880310058594,-1.1505062878131866,16.0,0.0,1.8124580383300781,-0.36585330963134766,-1.1505062878131866,23.25,0.0,2.414703369140625,-1.3546943664550781,0.0,15.5,0.0,2.3889541625976562,-1.1479854583740234,0.0,17.25,0.0,2.413630485534668,-1.2395381927490234,0.0,19.5,0.0,2.2219419479370117,-0.7306337356567383,0.0,13.0,,,,,,,,,,,,,,,,,,,,,,,,,,,,,,
0.0,0.35304689407348633,2.027549982070923,0.0002703223144635558,0.5133137106895447,-0.30396032333374023,0.000435279100202024,0.07089537382125854,-0.4429337978363037,0.00013074000889901072,0.0,2.2687911987304688,-1.2860298156738281,-0.19175104796886444,18.25,0.0,2.2770166397094727,-1.3507604598999023,-0.19175104796886444,17.0,0.0,2.2215843200683594,-1.1429786682128906,-0.19175104796886444,12.0,0.0,1.7527341842651367,-0.17952919006347656,-0.5752531439065933,20.75,0.0,1.7641782760620117,-0.1888275146484375,-0.5752531439065933,24.0,0.0,1.8292665481567383,-0.2027750015258789,-0.5752531439065933,18.5,0.0,2.4290084838867188,-1.1165142059326172,0.0,16.75,0.0,2.3832321166992188,-1.072525978088379,0.0,16.25,,,,,,,,,,,,,,,,,,,,,,,,,,,,,,,,,,,,,,,,,,,,,
0.0,0.2932508885860443,2.0165677070617676,0.00025356211699545383,0.36296433210372925,-0.29748281836509705,0.0003892446111422032,-0.042273059487342834,-0.38737884163856506,0.00010153711627935991,0.0,1.6533136367797852,-0.21278858184814453,-0.3835020959377289,15.0,0.0,1.7094612121582031,-0.2117156982421875,-0.3835020959377289,23.25,0.0,1.7348527908325195,-0.18846988677978516,-0.3835020959377289,23.5,0.0,1.809239387512207,-0.16164779663085938,-0.3835020959377289,16.0,0.0,2.3381710052490234,-1.1494159698486328,0.0,16.25,0.0,2.3889541625976562,-1.193404197692871,0.0,16.0,0.0,2.0148754119873047,0.059723854064941406,0.0,20.25,,,,,,,,,,,,,,,,,,,,,,,,,,,,,,,,,,,,,,,,,,,,,,,,,,
0.0,0.23899388313293457,1.995811939239502,0.00022200685634743422,0.23276856541633606,-0.2929123044013977,0.00033028738107532263,-0.1309833526611328,-0.3309432864189148,6.75002665957436e-05,0.0,2.0695924758911133,-1.292109489440918,-0.19175104796886444,16.5,0.0,2.1386146545410156,-1.2971162796020508,-0.19175104796886444,16.75,0.0,1.639723777770996,-0.2435445785522461,-0.3835020959377289,18.0,0.0,1.691579818725586,-0.1938343048095703,-0.3835020959377289,25.5,0.0,1.7262697219848633,-0.12731552124023438,-0.3835020959377289,25.5,0.0,1.7970800399780273,-0.13446807861328125,-0.3835020959377289,16.75,0.0,2.3102760314941406,-1.1751651763916016,0.0,15.75,0.0,2.3567676544189453,-1.2552738189697266,0.0,15.25,,,,,,,,,,,,,,,,,,,,,,,,,,,,,,,,,,,,,,,,,,,,,
0.0,0.04768426716327667,1.9237409830093384,0.00019233225611969829,-0.11933985352516174,-0.46829119324684143,0.0002720466291066259,-0.4106781482696533,-0.5608299374580383,3.2260206353385e-05,0.0,2.1282434463500977,-1.225590705871582,-0.5752531439065933,16.75,0.0,2.157926559448242,-1.2520551681518555,-0.3835020959377289,17.5,0.0,1.7906427383422852,-0.21886825561523438,-0.5752531439065933,13.75,0.0,1.6533136367797852,-0.13339519500732422,0.3835020959377289,18.0,0.0,1.6887187957763672,-0.1266002655029297,0.3835020959377289,25.75,0.0,1.6990900039672852,-0.13589859008789062,0.3835020959377289,24.25,0.0,2.3235082626342773,-1.1186599731445312,0.0,15.75,0.0,2.3821592330932617,-1.1844635009765625,0.0,14.75,0.0,2.2115707397460938,-0.9874105453491211,0.0,12.5,0.0,1.7348527908325195,-0.09906291961669922,0.0,21.25,,,,,,,,,,,,,,,,,,,,,,,,,,,,,,,,,,,
0.0,-0.02065039798617363,1.8698334693908691,0.00017729727551341057,-0.2413565218448639,-0.5285002589225769,0.00023308602976612747,-0.472555935382843,-0.5687379240989685,1.0935222235275432e-05,0.0,1.7752647399902344,-0.3991127014160156,0.3835020959377289,17.5,0.0,1.7112493515014648,-0.2510547637939453,0.3835020959377289,24.5,0.0,1.6504526138305664,-0.07724761962890625,-0.5752531439065933,17.75,0.0,1.6912221908569336,-0.13017654418945312,0.3835020959377289,24.75,0.0,2.3403167724609375,-1.0929107666015625,0.0,16.0,0.0,2.3800134658813477,-1.1844635009765625,0.0,15.25,0.0,2.2298097610473633,-0.9201765060424805,0.0,12.75,,,,,,,,,,,,,,,,,,,,,,,,,,,,,,,,,,,,,,,,,,,,,,,,,,
0.0,-0.10922396928071976,1.82463800907135,0.00015106442151591182,-0.38653430342674255,-0.5392885804176331,0.00018520357843954116,-0.5495668053627014,-0.5025179386138916,-1.325702942267526e-05,0.0,1.8239021301269531,-1.3271570205688477,-0.9587552398443222,14.25,0.0,1.907944679260254,-1.4365911483764648,-0.9587552398443222,18.25,0.0,1.9551515579223633,-1.474142074584961,-0.9587552398443222,15.0,0.0,1.7949342727661133,-0.54931640625,0.5752531439065933,14.75,0.0,1.7055273056030273,-0.3139972686767578,0.5752531439065933,20.25,0.0,1.5810728073120117,0.041484832763671875,-0.5752531439065933,17.75,0.0,1.633286476135254,-0.03933906555175781,-0.5752531439065933,21.0,0.0,2.013087272644043,-1.329660415649414,0.0,14.75,0.0,2.224445343017578,-1.270294189453125,0.0,15.75,0.0,2.3975372314453125,-1.168370246887207,0.0,14.5,0.0,1.6336441040039062,-0.06008148193359375,0.0,17.25,0.0,1.7037391662597656,-0.08368492126464844,0.0,23.5,,,,,,,,,,,,,,,,,,,,,,,,,
0.0,-0.2734159231185913,1.812540054321289,0.00011505927250254899,-0.6346549987792969,-0.5125971436500549,0.00013010652037337422,-0.7034454941749573,-0.42190441489219666,-3.9986167394090444e-05,0.0,1.8700361251831055,-1.4147758483886719,-0.3835020959377289,13.5,0.0,1.8221139907836914,-1.1833906173706055,-0.3835020959377289,13.0,0.0,1.7995834350585938,-0.45239925384521484,0.3835020959377289,17.75,0.0,1.7087459564208984,-0.3676414489746094,0.19175104796886444,22.5,0.0,1.6207695007324219,-0.24390220642089844,-0.3835020959377289,23.0,0.0,1.462697982788086,-0.04684925079345703,-0.3835020959377289,15.0,0.0,1.534581184387207,-0.09191036224365234,-0.3835020959377289,21.75,0.0,1.9458532333374023,-1.4129877090454102,0.0,15.75,0.0,2.190113067626953,-1.305699348449707,0.0,15.5,0.0,2.412557601928711,-1.1479854583740234,0.0,14.25,0.0,1.5649795532226562,-0.20420551300048828,0.0,20.5,0.0,1.6633272171020508,-0.15556812286376953,0.0,24.25,,,,,,,,,,,,,,,,,,,,,,,,,
0.0,-0.40688008069992065,1.80743408203125,8.982176950667053e-05,-0.8413622379302979,-0.43779927492141724,8.760308264754713e-05,-0.8331829905509949,-0.2634037137031555,-5.900246469536796e-05,0.0,1.7806291580200195,-1.3486146926879883,-0.19175104796886444,13.75,0.0,1.912236213684082,-1.2552738189697266,-0.19175104796886444,13.0,0.0,1.5985965728759766,-0.36084651947021484,0.19175104796886444,16.5,0.0,1.4362335205078125,-0.1913309097290039,-0.5752531439065933,26.0,0.0,1.4462471008300781,-0.21278858184814453,-0.3835020959377289,31.0,0.0,1.474142074584961,-0.22780895233154297,-0.3835020959377289,27.25,0.0,1.4505386352539062,-0.2503395080566406,0.0,15.75,0.0,1.520991325378418,-0.23102760314941406,0.0,24.0,0.0,1.6179084777832031,-0.18775463104248047,0.0,25.5,0.0,1.8213987350463867,-0.22208690643310547,0.0,19.0,,,,,,,,,,,,,,,,,,,,,,,,,,,,,,,,,,,
0.0,-0.46800675988197327,1.77834153175354,7.751148950774223e-05,-0.9127001166343689,-0.3877218961715698,5.9477664763107896e-05,-0.8449555039405823,-0.1396045833826065,-7.02239412930794e-05,0.0,1.5059709548950195,-1.3450384140014648,-1.342257335782051,16.0,0.0,1.3325214385986328,-0.09334087371826172,-0.5752531439065933,19.0,0.0,1.394033432006836,-0.0883340835571289,-0.5752531439065933,30.5,0.0,1.3990402221679688,-0.0833272933959961,-0.7670041918754578,32.5,0.0,1.4348030090332031,-0.08225440979003906,-0.7670041918754578,25.25,0.0,1.4677047729492188,-0.1806020736694336,0.0,26.75,0.0,1.828908920288086,-0.2639293670654297,0.0,17.75,0.0,1.5753507614135742,-0.1462697982788086,0.0,25.5,0.0,1.7137527465820312,-0.15270709991455078,0.0,23.0,,,,,,,,,,,,,,,,,,,,,,,,,,,,,,,,,,,,,,,,
0.0,-0.5364483594894409,1.7443238496780396,6.031737575540319e-05,-0.9045921564102173,-0.4589483439922333,2.8704089345410466e-05,-0.737339437007904,-0.25532928109169006,-8.324985537910834e-05,0.0,1.4355182647705078,-1.1647939682006836,-0.3835020959377289,12.5,0.0,1.495957374572754,-0.5725622177124023,-0.3835020959377289,12.5,0.0,1.3393163681030273,-0.04792213439941406,-0.3835020959377289,19.5,0.0,1.3611316680908203,-0.01895427703857422,-0.3835020959377289,18.75,0.0,1.7001628875732422,-0.17881393432617188,0.0,22.75,0.0,1.5685558319091797,-0.13518333435058594,0.0,26.25,,,,,,,,,,,,,,,,,,,,,,,,,,,,,,,,,,,,,,,,,,,,,,,,,,,,,,,
0.0,-0.5650063753128052,1.714490532875061,4.5027045416645706e-05,-0.8630229830741882,-0.4457954168319702,6.88498403178528e-07,-0.6387808918952942,-0.21237343549728394,-9.382252756040543e-05,0.0,1.4244318008422852,-0.35691261291503906,-0.3835020959377289,13.25,0.0,0.9133815765380859,0.06473064422607422,-0.3835020959377289,12.25,0.0,1.2466907501220703,0.06794929504394531,-0.3835020959377289,26.25,0.0,1.257777214050293,0.06079673767089844,-0.3835020959377289,30.0,0.0,1.2853145599365234,0.058650970458984375,-0.3835020959377289,25.25,0.0,1.7380714416503906,-1.3697147369384766,0.0,17.0,0.0,1.555323600769043,-0.16450881958007812,0.0,25.75,0.0,1.6983747482299805,-0.18024444580078125,0.0,22.0,,,,,,,,,,,,,,,,,,,,,,,,,,,,,,,,,,,,,,,,,,,,,
0.0,-0.5827759504318237,1.6689188480377197,3.478004509815946e-05,-0.7860797047615051,-0.4615687429904938,-2.0180548744974658e-05,-0.5057317018508911,-0.2182178944349289,-0.00010022280912380666,0.0,1.6840696334838867,-1.3571977615356445,-0.3835020959377289,13.5,0.0,1.257777214050293,-0.4030466079711914,-0.5752531439065933,21.25,0.0,1.226663589477539,-0.10585784912109375,-0.5752531439065933,26.0,0.0,0.91552734375,0.006079673767089844,-0.5752531439065933,14.25,0.0,1.2030601501464844,-0.01609325408935547,-0.5752531439065933,24.0,0.0,1.7126798629760742,-1.4036893844604492,0.0,17.75,0.0,1.948714256286621,-1.4744997024536133,0.0,13.5,0.0,1.6880035400390625,-0.3286600112915039,0.0,19.75,0.0,1.5292167663574219,-0.19991397857666016,0.0,24.0,,,,,,,,,,,,,,,,,,,,,,,,,,,,,,,,,,,,,,,,
0.0,-0.5378613471984863,1.613796353340149,2.7451729692984372e-05,-0.564590573310852,-0.5107293725013733,-3.6073524825042114e-05,-0.2297305166721344,-0.2964019179344177,-0.00010364967602072284,0.0,0.9069442749023438,0.12481212615966797,-0.19175104796886444,27.75,0.0,1.1383295059204102,0.23317337036132812,-0.19175104796886444,35.25,0.0,1.141190528869629,0.28073787689208984,-0.19175104796886444,34.75,0.0,1.1844635009765625,0.3325939178466797,-0.19175104796886444,25.0,0.0,1.6654729843139648,-1.462697982788086,0.0,17.0,0.0,1.9336938858032227,-1.5027523040771484,0.0,12.75,0.0,1.5124082565307617,-0.20635128021240234,0.0,23.75,0.0,0.9080171585083008,0.11837482452392578,0.0,13.75,,,,,,,,,,,,,,,,,,,,,,,,,,,,,,,,,,,,,,,,,,,,,
0.0,-0.5502233505249023,1.5621994733810425,1.9091188733000308e-05,-0.504612147808075,-0.5254355669021606,-5.187245551496744e-05,-0.15463709831237793,-0.28296270966529846,-0.00010673077485989779,0.0,0.9151697158813477,0.027894973754882812,-0.3835020959377289,29.0,0.0,1.0710954666137695,0.0776052474975586,-0.3835020959377289,31.75,0.0,1.0911226272583008,0.15628337860107422,-0.3835020959377289,26.75,0.0,1.1572837829589844,0.3687143325805664,-0.19175104796886444,13.25,0.0,1.669764518737793,-1.4008283615112305,0.0,16.0,0.0,1.5056133270263672,-0.2378225326538086,0.0,22.25,0.0,0.9137392044067383,0.055789947509765625,0.0,19.0,,,,,,,,,,,,,,,,,,,,,,,,,,,,,,,,,,,,,,,,,,,,,,,,,,
0.0,-0.4308587908744812,1.5446199178695679,9.518013030174188e-06,-0.2239076793193817,-0.4350474774837494,-6.864337774459273e-05,0.09740602970123291,-0.1544920951128006,-0.00011008801084244624,0.0,1.5020370483398438,-1.3185739517211914,-0.19175104796886444,15.0,0.0,1.283884048461914,-0.5507469177246094,-0.19175104796886444,15.25,0.0,1.6314983367919922,-0.6662607192993164,0.19175104796886444,14.75,0.0,1.5692710876464844,-0.42128562927246094,0.19175104796886444,15.0,0.0,0.9119510650634766,-0.08082389831542969,-0.19175104796886444,20.5,0.0,1.0982751846313477,0.0661611557006836,-0.19175104796886444,25.0,0.0,1.1254549026489258,0.22923946380615234,-0.19175104796886444,24.5,0.0,1.2019872665405273,0.3955364227294922,0.19175104796886444,15.0,0.0,1.4709234237670898,-0.14734268188476562,0.0,18.5,,,,,,,,,,,,,,,,,,,,,,,,,,,,,,,,,,,,,,,,
0.0,-0.4078180193901062,1.4824005365371704,2.3711843368801055e-06,-0.1270390897989273,-0.47810208797454834,-7.951752922963351e-05,0.18256723880767822,-0.19854342937469482,-0.00011000587255693972,0.0,1.6161203384399414,-1.3579130172729492,0.19175104796886444,16.25,0.0,1.6415119171142578,-1.3997554779052734,0.19175104796886444,18.75,0.0,1.6869306564331055,-1.4351606369018555,0.19175104796886444,13.25,0.0,1.3486146926879883,-0.7506608963012695,0.19175104796886444,13.5,0.0,1.2799501419067383,-0.2238750457763672,0.19175104796886444,17.0,0.0,0.9133815765380859,0.06401538848876953,0.19175104796886444,18.5,0.0,1.153707504272461,0.148773193359375,0.19175104796886444,26.5,0.0,1.165151596069336,0.1480579376220703,0.19175104796886444,26.0,0.0,1.1222362518310547,0.06830692291259766,0.0,29.0,0.0,1.1980533599853516,0.046133995056152344,0.0,27.75,,,,,,,,,,,,,,,,,,,,,,,,,,,,,,,,,,,
0.0,-0.233649343252182,1.4983282089233398,-6.17485193288303e-06,0.20171482861042023,-0.3246210217475891,-9.230355499312282e-05,0.4350299835205078,-0.00384695827960968,-0.00011098576214862987,0.0,0.9073019027709961,-0.1233816146850586,0.19175104796886444,24.5,0.0,1.090407371520996,-0.15556812286376953,0.19175104796886444,27.5,0.0,1.1397600173950195,-0.14841556549072266,0.19175104796886444,25.25,0.0,1.2402534484863281,-0.13625621795654297,0.3835020959377289,15.25,0.0,1.4966726303100586,-1.1783838272094727,0.0,13.0,0.0,1.1097192764282227,0.06902217864990234,0.0,28.0,0.0,1.1497735977172852,0.10764598846435547,0.0,26.5,,,,,,,,,,,,,,,,,,,,,,,,,,,,,,,,,,,,,,,,,,,,,,,,,,
0.0,-0.12271564453840256,1.4542142152786255,-1.2229565982124768e-05,0.40011435747146606,-0.3134976923465729,-9.958432929124683e-05,0.5711356401443481,0.009473211131989956,-0.0001088015633285977,0.0,0.9148120880126953,-0.03719329833984375,0.3835020959377289,19.25,0.0,1.1644363403320312,0.19991397857666016,0.3835020959377289,28.0,0.0,1.1708736419677734,0.2868175506591797,0.3835020959377289,29.5,0.0,1.2069940567016602,0.3350973129272461,0.3835020959377289,22.0,0.0,1.2685060501098633,-0.19884109497070312,0.0,18.25,0.0,0.91552734375,0.005364418029785156,0.0,23.25,0.0,1.110076904296875,0.07724761962890625,0.0,28.25,0.0,1.1451244354248047,0.14483928680419922,0.0,27.5,,,,,,,,,,,,,,,,,,,,,,,,,,,,,,,,,,,,,,,,,,,,,
0.0,-0.055540990084409714,1.4326198101043701,-1.612101732462179e-05,0.5000984072685242,-0.23498746752738953,-0.00010371182725066319,0.6059240102767944,0.14019736647605896,-0.00010525536345085129,0.0,0.914454460144043,-0.04470348358154297,0.3835020959377289,20.0,0.0,1.1572837829589844,0.0890493392944336,0.3835020959377289,26.5,0.0,1.2059211730957031,0.30863285064697266,0.5752531439065933,28.75,0.0,1.2366771697998047,0.3848075866699219,0.5752531439065933,25.0,0.0,0.91552734375,0.0010728836059570312,0.0,24.0,0.0,1.1136531829833984,0.06866455078125,0.0,29.0,0.0,1.1529922485351562,0.14448165893554688,0.0,28.25,0.0,1.2423992156982422,0.15485286712646484,0.0,20.0,,,,,,,,,,,,,,,,,,,,,,,,,,,,,,,,,,,,,,,,,,,,,
0.0,0.015335187315940857,1.418517827987671,-2.165797195630148e-05,0.5991947054862976,-0.14183494448661804,-0.0001089452562155202,0.6426916122436523,0.2793562114238739,-0.00010257838584948331,0.0,1.3267993927001953,-1.0031461715698242,0.5752531439065933,17.75,0.0,1.3707876205444336,-1.0925531387329102,0.5752531439065933,15.5,0.0,1.282811164855957,-0.70953369140625,0.5752531439065933,13.5,0.0,0.9126663208007812,-0.0743865966796875,0.3835020959377289,14.0,0.0,1.1626482009887695,-0.059723854064941406,0.3835020959377289,22.25,0.0,1.204848289489746,0.03898143768310547,0.3835020959377289,21.75,0.0,1.2767314910888672,0.2739429473876953,0.5752531439065933,16.5,0.0,1.4798641204833984,-1.1630058288574219,0.0,13.0,0.0,1.1165142059326172,0.07224082946777344,0.0,29.0,0.0,1.157999038696289,0.12946128845214844,0.0,28.25,0.0,1.2331008911132812,0.21314620971679688,0.0,20.75,,,,,,,,,,,,,,,,,,,,,,,,,,,,,,
0.0,0.03283572196960449,1.3970688581466675,-2.7157480872119777e-05,0.5910836458206177,-0.07203911989927292,-0.00011278788588242605,0.5838381052017212,0.37647756934165955,-9.919581498252228e-05,0.0,1.4702081680297852,-1.0006427764892578,0.9587552398443222,17.25,0.0,1.4455318450927734,-0.9012222290039062,0.9587552398443222,16.0,0.0,1.179814338684082,-0.2607107162475586,0.3835020959377289,18.0,0.0,1.232743263244629,-0.2149343490600586,0.3835020959377289,20.25,0.0,1.3775825500488281,0.1970529556274414,0.5752531439065933,18.5,,,,,,,,,,,,,,,,,,,,,,,,,,,,,,,,,,,,,,,,,,,,,,,,,,,,,,,,,,,,
0.0,0.14837300777435303,1.3902077674865723,-3.155252488795668e-05,0.7577334642410278,0.011677179485559464,-0.00011433431063778698,0.6887608766555786,0.4654194116592407,-9.45871215662919e-05,0.0,1.5960931777954102,-1.2845993041992188,0.7670041918754578,14.75,0.0,1.5578269958496094,-1.0682344436645508,0.7670041918754578,12.5,0.0,1.2220144271850586,-0.2288818359375,0.5752531439065933,22.25,0.0,1.2456178665161133,-0.22280216217041016,0.5752531439065933,26.0,0.0,1.2903213500976562,-0.1952648162841797,0.5752531439065933,21.5,0.0,1.5342235565185547,-1.044631004333496,0.0,13.25,,,,,,,,,,,,,,,,,,,,,,,,,,,,,,,,,,,,,,,,,,,,,,,,,,,,,,,
0.0,0.24359607696533203,1.3877922296524048,-3.490797826088965e-05,0.8712551593780518,0.09458748996257782,-0.00011374642053851858,0.740361213684082,0.5428206324577332,-8.895806968212128e-05,0.0,1.2252330780029297,-0.6405115127563477,0.7670041918754578,12.75,0.0,1.2373924255371094,-0.4652738571166992,0.7670041918754578,14.0,0.0,3.3055543899536133,0.3161430358886719,0.7670041918754578,13.75,0.0,3.3059120178222656,0.3161430358886719,0.7670041918754578,14.0,,,,,,,,,,,,,,,,,,,,,,,,,,,,,,,,,,,,,,,,,,,,,,,,,,,,,,,,,,,,,,,,,
0.0,0.26089543104171753,1.3954758644104004,-3.710151941049844e-05,0.8234923481941223,0.17861755192279816,-0.00011099621042376384,0.6386558413505554,0.6017448306083679,-8.226990030379966e-05,0.0,1.770615577697754,-1.5381574630737305,0.19175104796886444,13.0,0.0,1.4537572860717773,-0.24390220642089844,1.1505062878131866,21.0,0.0,1.5041828155517578,-0.26857852935791016,0.7670041918754578,19.0,0.0,1.4151334762573242,-0.21386146545410156,1.1505062878131866,16.0,,,,,,,,,,,,,,,,,,,,,,,,,,,,,,,,,,,,,,,,,,,,,,,,,,,,,,,,,,,,,,,,,
0.0,0.2522980272769928,1.4298843145370483,-4.078792699147016e-05,0.7256473302841187,0.2857751250267029,-0.00010976479825330898,0.4984692335128784,0.6659383773803711,-7.681368151679635e-05,0.0,1.667618751525879,-1.305699348449707,1.1505062878131866,20.0,0.0,1.7527341842651367,-1.4312267303466797,0.9587552398443222,13.75,0.0,1.6204118728637695,-1.1848211288452148,1.1505062878131866,20.5,0.0,1.621842384338379,-0.9087324142456055,0.5752531439065933,18.75,0.0,1.5649795532226562,-0.36835670471191406,0.5752531439065933,20.0,0.0,1.508474349975586,-0.20170211791992188,0.9587552398443222,19.0,0.0,1.5374422073364258,-1.2731552124023438,0.0,14.0,,,,,,,,,,,,,,,,,,,,,,,,,,,,,,,,,,,,,,,,,,,,,,,,,,
0.0,0.2074648141860962,1.4823880195617676,-4.3757205276051536e-05,0.5739220976829529,0.422616183757782,-0.00010752610251074657,0.3265347182750702,0.7588200569152832,-7.114977779565379e-05,0.0,1.682281494140625,-1.1065006256103516,0.9587552398443222,17.75,0.0,1.7666816711425781,-1.1930465698242188,0.9587552398443222,19.0,0.0,1.6690492630004883,-0.49173831939697266,0.5752531439065933,18.5,0.0,1.6118288040161133,-0.2903938293457031,0.5752531439065933,21.75,0.0,1.590728759765625,-0.17559528350830078,0.5752531439065933,18.0,,,,,,,,,,,,,,,,,,,,,,,,,,,,,,,,,,,,,,,,,,,,,,,,,,,,,,,,,,,,
0.0,0.2013499140739441,1.5441205501556396,-5.1746774261118844e-05,0.4982345402240753,0.5425085425376892,-0.00011107951286248863,0.23475584387779236,0.8130281567573547,-6.915448466315866e-05,0.0,1.9036531448364258,-1.0793209075927734,0.9587552398443222,22.75,0.0,1.9251108169555664,-1.2044906616210938,0.9587552398443222,16.75,0.0,1.796722412109375,-0.6837844848632812,0.5752531439065933,18.5,0.0,1.6483068466186523,-0.2682209014892578,0.5752531439065933,16.0,0.0,1.6787052154541016,-0.32258033752441406,0.5752531439065933,25.5,0.0,1.691579818725586,-0.3304481506347656,0.5752531439065933,25.0,0.0,1.6779899597167969,-0.27000904083251953,0.0,18.5,0.0,1.593947410583496,-0.2313852310180664,0.0,22.0,,,,,,,,,,,,,,,,,,,,,,,,,,,,,,,,,,,,,,,,,,,,,
0.0,0.13100919127464294,1.6471335887908936,-5.277789750834927e-05,0.3311987519264221,0.7477021217346191,-0.00010617106454446912,0.08220367133617401,0.9699327349662781,-6.264635158004239e-05,0.0,1.8954277038574219,-1.5431642532348633,0.9587552398443222,14.5,0.0,1.9147396087646484,-1.6608238220214844,1.1505062878131866,15.25,0.0,1.8775463104248047,-1.0156631469726562,0.19175104796886444,13.0,0.0,1.8614530563354492,-1.007080078125,0.19175104796886444,13.0,0.0,1.7684698104858398,-0.5675554275512695,0.5752531439065933,16.75,0.0,1.738429069519043,-0.41484832763671875,0.5752531439065933,21.0,0.0,1.7305612564086914,-0.34332275390625,0.5752531439065933,17.25,,,,,,,,,,,,,,,,,,,,,,,,,,,,,,,,,,,,,,,,,,,,,,,,,,
0.0,0.08976820111274719,1.7245690822601318,-5.623992547043599e-05,0.2146787941455841,0.8453032374382019,-0.00010355035192333162,-0.024453885853290558,0.9651159644126892,-5.747795512434095e-05,0.0,1.7745494842529297,0.03826618194580078,0.7670041918754578,12.25,0.0,1.8153190612792969,0.04398822784423828,0.7670041918754578,15.75,0.0,1.880049705505371,-0.04398822784423828,0.7670041918754578,12.25,,,,,,,,,,,,,,,,,,,,,,,,,,,,,,,,,,,,,,,,,,,,,,,,,,,,,,,,,,,,,,,,,,,,,,
0.0,0.014466524124145508,1.7808277606964111,-5.5102202168200165e-05,0.048217326402664185,0.865592360496521,-9.514775592833757e-05,-0.16680428385734558,0.8584080934524536,-4.911969153909013e-05,0.0,1.9855499267578125,-0.20170211791992188,0.7670041918754578,18.0,0.0,1.851797103881836,-0.10442733764648438,0.7670041918754578,17.5,0.0,1.8990039825439453,-0.1251697540283203,0.7670041918754578,25.75,0.0,1.9125938415527344,-0.12946128845214844,0.7670041918754578,25.75,,,,,,,,,,,,,,,,,,,,,,,,,,,,,,,,,,,,,,,,,,,,,,,,,,,,,,,,,,,,,,,,,
0.0,-0.08995939791202545,1.8297008275985718,-5.0647267926251516e-05,-0.14644742012023926,0.8511018753051758,-8.332407742273062e-05,-0.31651413440704346,0.7197228670120239,-3.935363929485902e-05,0.0,2.240896224975586,-1.410841941833496,-0.19175104796886444,13.25,0.0,2.080678939819336,-1.0482072830200195,1.9175104796886444,21.5,0.0,2.1893978118896484,-1.1715888977050781,-0.19175104796886444,15.75,0.0,2.0627975463867188,-0.47385692596435547,0.7670041918754578,22.0,0.0,1.9526481628417969,0.015020370483398438,0.7670041918754578,25.75,0.0,1.8657445907592773,0.1062154769897461,0.7670041918754578,12.75,0.0,1.9290447235107422,0.07152557373046875,0.7670041918754578,23.75,,,,,,,,,,,,,,,,,,,,,,,,,,,,,,,,,,,,,,,,,,,,,,,,,,
0.0,-0.24135830998420715,1.8718456029891968,-4.4780856114812195e-05,-0.38877421617507935,0.7828791737556458,-7.043110963422805e-05,-0.4843248128890991,0.5131614804267883,-2.9484006518032402e-05,0.0,2.2405385971069336,-1.2195110321044922,1.5340083837509155,21.25,0.0,2.251267433166504,-1.3990402221679688,0.3835020959377289,17.25,0.0,2.150416374206543,-1.1190176010131836,1.5340083837509155,20.25,0.0,1.992344856262207,0.1634359359741211,0.7670041918754578,15.75,0.0,2.017378807067871,0.25784969329833984,0.7670041918754578,22.25,0.0,2.044200897216797,0.3275871276855469,0.7670041918754578,20.75,0.0,1.6754865646362305,-0.1766681671142578,0.0,24.75,0.0,1.593947410583496,-0.1519918441772461,0.0,20.0,,,,,,,,,,,,,,,,,,,,,,,,,,,,,,,,,,,,,,,,,,,,,
0.0,-0.21303950250148773,1.9333332777023315,-4.383563282317482e-05,-0.32805174589157104,0.8058554530143738,-6.434034730773419e-05,-0.39476969838142395,0.48773056268692017,-2.4504859538865276e-05,0.0,2.303481101989746,-1.0972023010253906,0.19175104796886444,17.25,0.0,2.3392438888549805,-1.2356042861938477,0.19175104796886444,14.25,0.0,2.1936893463134766,-0.9216070175170898,0.19175104796886444,15.75,0.0,2.1103620529174805,-0.10907649993896484,0.7670041918754578,15.0,0.0,2.156853675842285,0.08976459503173828,0.7670041918754578,18.0,,,,,,,,,,,,,,,,,,,,,,,,,,,,,,,,,,,,,,,,,,,,,,,,,,,,,,,,,,,,
0.0,-0.21229691803455353,1.9941902160644531,-4.057978367200121e-05,-0.31238654255867004,0.8177450895309448,-5.598806092166342e-05,-0.3493485748767853,0.44725924730300903,-1.8528462533140555e-05,0.0,2.3353099822998047,-1.4548301696777344,0.3835020959377289,12.5,0.0,2.209782600402832,-0.3719329833984375,0.5752531439065933,18.5,0.0,2.1393299102783203,0.27751922607421875,0.7670041918754578,19.5,0.0,2.15756893157959,0.3046989440917969,0.7670041918754578,25.0,0.0,2.1893978118896484,0.34689903259277344,0.7670041918754578,20.5,,,,,,,,,,,,,,,,,,,,,,,,,,,,,,,,,,,,,,,,,,,,,,,,,,,,,,,,,,,,
0.0,-0.3136640191078186,2.0755484104156494,-3.343148637213744e-05,-0.4482956826686859,0.8266919851303101,-4.3730549805331975e-05,-0.4265623986721039,0.3854607045650482,-1.0649690011632629e-05,0.0,2.3953914642333984,-1.0925531387329102,0.5752531439065933,12.25,0.0,2.356410026550293,-0.4824399948120117,0.7670041918754578,19.0,0.0,2.300262451171875,-0.2378225326538086,0.9587552398443222,25.0,0.0,2.273440361022949,-0.12946128845214844,0.7670041918754578,24.5,0.0,2.215147018432617,-0.03361701965332031,0.7670041918754578,15.0,,,,,,,,,,,,,,,,,,,,,,,,,,,,,,,,,,,,,,,,,,,,,,,,,,,,,,,,,,,,
0.0,-0.3808658719062805,2.1756832599639893,-2.968601620523259e-05,-0.5212485194206238,0.882672905921936,-3.5915159969590604e-05,-0.4509395956993103,0.3998529016971588,-5.752919605583884e-06,0.0,2.5860071182250977,-1.2627840042114258,0.7670041918754578,14.0,0.0,2.5606155395507812,-0.9427070617675781,0.7670041918754578,16.0,0.0,2.2780895233154297,0.27573108673095703,0.7670041918754578,17.75,0.0,2.399325370788574,0.5854368209838867,0.7670041918754578,18.25,0.0,2.275228500366211,0.7002353668212891,0.7670041918754578,20.75,,,,,,,,,,,,,,,,,,,,,,,,,,,,,,,,,,,,,,,,,,,,,,,,,,,,,,,,,,,,
0.0,-0.4531534016132355,2.2430918216705322,-2.7982989195152186e-05,-0.5759261846542358,0.8272163271903992,-3.0604907806264237e-05,-0.44261837005615234,0.25295767188072205,-2.3437096388079226e-06,0.0,2.619624137878418,-1.1926889419555664,0.7670041918754578,15.0,0.0,2.701878547668457,-1.4330148696899414,0.7670041918754578,12.5,0.0,2.529144287109375,-0.948786735534668,0.9587552398443222,17.5,0.0,2.4715662002563477,-0.5854368209838867,0.5752531439065933,18.75,0.0,2.400040626525879,-0.5235671997070312,0.3835020959377289,18.75,0.0,2.1647214889526367,0.7992982864379883,0.5752531439065933,13.25,0.0,2.1686553955078125,0.9820461273193359,0.5752531439065933,15.0,,,,,,,,,,,,,,,,,,,,,,,,,,,,,,,,,,,,,,,,,,,,,,,,,,
0.0,-0.3941204845905304,2.319859743118286,-2.5830446247709915e-05,-0.4244304597377777,0.8296253085136414,-2.5203322365996428e-05,-0.27510005235671997,0.21241024136543274,7.999776698852656e-07,0.0,2.637147903442383,-1.0228157043457031,0.9587552398443222,17.75,0.0,2.602815628051758,-0.8736848831176758,0.9587552398443222,19.5,0.0,2.365708351135254,0.32150745391845703,0.5752531439065933,14.5,0.0,2.4139881134033203,0.3587007522583008,0.5752531439065933,22.25,0.0,2.459406852722168,0.2950429916381836,0.5752531439065933,21.25,,,,,,,,,,,,,,,,,,,,,,,,,,,,,,,,,,,,,,,,,,,,,,,,,,,,,,,,,,,,
0.0,-0.41130802035331726,2.388906478881836,-2.3692691684118472e-05,-0.40808066725730896,0.8229610919952393,-2.0078165107406676e-05,-0.23703961074352264,0.17788492143154144,3.6306223591964226e-06,0.0,2.8020143508911133,-1.2867450714111328,0.19175104796886444,14.0,0.0,2.739071846008301,-0.9158849716186523,0.3835020959377289,14.0,0.0,2.623915672302246,-0.3025531768798828,0.19175104796886444,17.5,0.0,2.5255680084228516,0.0057220458984375,0.19175104796886444,22.0,0.0,2.486586570739746,0.10085105895996094,0.19175104796886444,20.0,,,,,,,,,,,,,,,,,,,,,,,,,,,,,,,,,,,,,,,,,,,,,,,,,,,,,,,,,,,,
0.0,-0.46174317598342896,2.473836660385132,-2.2995067411102355e-05,-0.4416416585445404,0.8306986093521118,-1.679949309618678e-05,-0.242511585354805,0.15830515325069427,5.266906555334572e-06,0.0,2.8982162475585938,-1.2170076370239258,0.19175104796886444,16.0,0.0,2.932906150817871,-1.293182373046875,0.9587552398443222,14.75,0.0,2.6056766510009766,0.1577138900756836,0.19175104796886444,19.0,0.0,2.6006698608398438,0.4023313522338867,0.19175104796886444,17.75,0.0,2.467632293701172,0.2034902572631836,0.0,21.75,,,,,,,,,,,,,,,,,,,,,,,,,,,,,,,,,,,,,,,,,,,,,,,,,,,,,,,,,,,,
0.0,-0.5883628129959106,2.538109064102173,-2.056519952020608e-05,-0.5826077461242676,0.7820659875869751,-1.1850766895804554e-05,-0.32778751850128174,0.07230264693498611,7.766963790345471e-06,0.0,2.870321273803711,-1.3175010681152344,0.19175104796886444,13.5,0.0,2.5212764739990234,-0.09226799011230469,0.3835020959377289,15.75,0.0,2.5516748428344727,0.00858306884765625,0.3835020959377289,19.5,0.0,2.5691986083984375,0.571131706237793,0.19175104796886444,16.75,,,,,,,,,,,,,,,,,,,,,,,,,,,,,,,,,,,,,,,,,,,,,,,,,,,,,,,,,,,,,,,,,
0.0,-0.6808339357376099,2.6165711879730225,-2.0101848349440843e-05,-0.6657650470733643,0.7884015440940857,-9.353240784548689e-06,-0.36795124411582947,0.07296300679445267,8.713284842087887e-06,0.0,2.933979034423828,-1.1404752731323242,0.19175104796886444,16.25,0.0,2.965092658996582,-1.1758804321289062,0.19175104796886444,14.0,0.0,2.5005340576171875,0.07653236389160156,0.19175104796886444,13.25,0.0,2.5516748428344727,0.3165006637573242,0.19175104796886444,16.75,0.0,2.5835037231445312,0.5457401275634766,0.19175104796886444,14.5,,,,,,,,,,,,,,,,,,,,,,,,,,,,,,,,,,,,,,,,,,,,,,,,,,,,,,,,,,,,
0.0,-0.604398250579834,2.6591644287109375,-1.7458292859373614e-05,-0.4529314935207367,0.6732988357543945,-4.711605470220093e-06,-0.14706672728061676,-0.10815062373876572,1.0851676051970571e-05,0.0,2.8814077377319336,-0.9015798568725586,0.7670041918754578,14.25,0.0,2.9425621032714844,-0.8933544158935547,0.19175104796886444,16.25,0.0,2.492666244506836,0.16200542449951172,-0.19175104796886444,14.5,0.0,2.526998519897461,0.26428699493408203,-0.19175104796886444,17.5,0.0,2.591729164123535,0.4248619079589844,0.19175104796886444,12.75,0.0,2.5548934936523438,0.5507469177246094,0.0,21.75,,,,,,,,,,,,,,,,,,,,,,,,,,,,,,,,,,,,,,,,,,,,,,,,,,,,,,,
0.0,-0.6440671682357788,2.727351665496826,-1.581216747581493e-05,-0.44970449805259705,0.6380365490913391,-1.4826973711024038e-06,-0.1260734349489212,-0.15440212190151215,1.2016413165838458e-05,0.0,2.5506019592285156,0.5983114242553711,0.0,21.75,,,,,,,,,,,,,,,,,,,,,,,,,,,,,,,,,,,,,,,,,,,,,,,,,,,,,,,,,,,,,,,,,,,,,,,,,,,,,,,,
0.0,-0.6230337619781494,2.7682743072509766,-1.4080297660257202e-05,-0.35691362619400024,0.5690416693687439,1.6089726386780967e-06,-0.03855690360069275,-0.22547301650047302,1.304848865402164e-05,0.0,2.8563737869262695,-1.2981891632080078,0.3835020959377289,15.5,0.0,2.9554367065429688,-1.2606382369995117,0.3835020959377289,12.0,0.0,2.502322196960449,0.8969306945800781,0.19175104796886444,14.5,0.0,2.548098564147949,0.880122184753418,0.19175104796886444,15.5,0.0,2.389669418334961,0.21314620971679688,0.0,12.75,0.0,2.4808645248413086,0.2557039260864258,0.0,22.0,0.0,2.5223493576049805,0.41162967681884766,0.0,24.25,0.0,2.5566816329956055,0.6015300750732422,0.0,21.25,,,,,,,,,,,,,,,,,,,,,,,,,,,,,,,,,,,,,,,,,,,,,
0.0,-0.6651268005371094,2.8059747219085693,-1.213749055750668e-05,-0.3594896197319031,0.4880618155002594,4.635139703168534e-06,-0.02788461372256279,-0.30656856298446655,1.3964153367851395e-05,0.0,3.1392574310302734,-1.0482072830200195,-0.19175104796886444,15.25,0.0,3.210783004760742,-1.0128021240234375,-0.19175104796886444,12.75,0.0,2.524852752685547,0.15413761138916016,0.19175104796886444,18.5,0.0,2.58028507232666,0.13124942779541016,0.19175104796886444,23.25,0.0,2.621769905090332,0.12159347534179688,0.19175104796886444,21.0,0.0,2.513408660888672,0.2321004867553711,0.0,20.25,0.0,2.5502443313598633,0.3540515899658203,0.0,24.25,0.0,2.795577049255371,0.3172159194946289,0.0,12.5,0.0,2.575993537902832,0.5128383636474609,0.0,21.75,,,,,,,,,,,,,,,,,,,,,,,,,,,,,,,,,,,,,,,,
0.0,-0.6608895063400269,2.838871717453003,-1.0112782547366805e-05,-0.2990657091140747,0.4185959994792938,7.524691682192497e-06,0.024841662496328354,-0.3593047559261322,1.4748713510925882e-05,0.0,3.1020641326904297,-1.1011362075805664,-0.19175104796886444,12.5,0.0,2.5548934936523438,0.2732276916503906,0.19175104796886444,20.25,0.0,2.604246139526367,0.3114938735961914,0.19175104796886444,27.25,0.0,2.6210546493530273,0.3472566604614258,0.19175104796886444,26.5,0.0,2.682924270629883,0.45490264892578125,0.19175104796886444,17.25,0.0,2.5159120559692383,0.17559528350830078,0.0,20.25,,,,,,,,,,,,,,,,,,,,,,,,,,,,,,,,,,,,,,,,,,,,,,,,,,,,,,,
0.0,-0.6906718611717224,2.878934860229492,-9.286569365940522e-06,0.0,0.0,0.0,0.0,0.0,0.0,0.0,2.4923086166381836,0.148773193359375,0.19175104796886444,15.75,0.0,2.5452375411987305,0.18596649169921875,0.19175104796886444,18.25,0.0,2.6575326919555664,0.2224445343017578,0.19175104796886444,15.25,0.0,2.5177001953125,0.17702579498291016,0.0,20.75,0.0,2.5616884231567383,0.3165006637573242,0.0,24.75,,,,,,,,,,,,,,,,,,,,,,,,,,,,,,,,,,,,,,,,,,,,,,,,,,,,,,,,,,,,
0.0,-0.7688930630683899,2.895084857940674,-8.33519698062446e-06,-0.11404380202293396,0.039476681500673294,9.558438023304916e-07,-0.08843787759542465,0.05297711864113808,4.871222927249619e-07,0.0,3.034830093383789,-0.708460807800293,-0.3835020959377289,12.75,0.0,2.525210380554199,0.16164779663085938,-0.19175104796886444,13.25,0.0,2.5942325592041016,0.3726482391357422,0.19175104796886444,18.25,0.0,2.804875373840332,0.3401041030883789,0.19175104796886444,15.25,0.0,2.6628971099853516,0.502467155456543,0.19175104796886444,18.75,0.0,2.5202035903930664,0.21886825561523438,0.0,20.75,0.0,2.5620460510253906,0.44739246368408203,0.0,25.25,,,,,,,,,,,,,,,,,,,,,,,,,,,,,,,,,,,,,,,,,,,,,,,,,,
0.0,-0.5995947122573853,2.908177614212036,-6.750792181264842e-06,0.11621624231338501,0.06994752585887909,2.594170609881985e-06,0.0743587389588356,0.08294294774532318,1.3436374501907267e-06,0.0,2.5992393493652344,0.01609325408935547,0.19175104796886444,19.5,0.0,2.653956413269043,0.0021457672119140625,0.19175104796886444,28.5,0.0,2.662181854248047,0.018596649169921875,0.19175104796886444,29.0,0.0,2.717256546020508,0.10979175567626953,0.19175104796886444,20.5,0.0,2.9697418212890625,-1.122593879699707,0.0,17.75,0.0,3.0673742294311523,-1.1197328567504883,0.0,16.5,0.0,2.5817155838012695,0.07081031799316406,0.0,25.0,0.0,2.530217170715332,0.11801719665527344,0.0,21.0,,,,,,,,,,,,,,,,,,,,,,,,,,,,,,,,,,,,,,,,,,,,,
0.0,-0.4777072072029114,2.921340227127075,-5.703293936676346e-06,0.2728537321090698,0.09675632417201996,3.548195763869444e-06,0.1801108419895172,0.10374213010072708,1.774415977706667e-06,0.0,2.9157400131225586,-1.2445449829101562,-0.3835020959377289,17.25,0.0,2.9654502868652344,-1.1773109436035156,-0.3835020959377289,14.25,0.0,2.637147903442383,0.07081031799316406,-0.19175104796886444,28.25,0.0,2.639293670654297,0.07653236389160156,-0.19175104796886444,27.75,0.0,2.583146095275879,0.08797645568847656,-0.19175104796886444,20.5,0.0,2.70688533782959,0.2428293228149414,-0.19175104796886444,17.5,0.0,2.9554367065429688,-1.178741455078125,0.0,16.75,0.0,3.0641555786132812,-1.1429786682128906,0.0,16.5,0.0,2.5577545166015625,0.10228157043457031,0.0,22.5,0.0,2.6110410690307617,0.10228157043457031,0.0,28.5,0.0,2.7483701705932617,0.27430057525634766,0.0,17.75,,,,,,,,,,,,,,,,,,,,,,,,,,,,,,
0.0,-0.3299731910228729,2.9199373722076416,-4.697433723777067e-06,0.4535668194293976,0.10936826467514038,4.424193321028724e-06,0.29597416520118713,0.11796867847442627,2.1500757156900363e-06,0.0,3.040909767150879,-1.0478496551513672,-0.3835020959377289,12.75,0.0,2.994418144226074,-0.8558034896850586,-0.3835020959377289,14.5,0.0,2.56955623626709,0.09369850158691406,0.19175104796886444,13.75,0.0,2.6432275772094727,0.19991397857666016,-0.3835020959377289,22.25,0.0,2.6636123657226562,0.4445314407348633,-0.3835020959377289,23.5,0.0,2.719759941101074,0.5289316177368164,-0.3835020959377289,18.25,0.0,2.940058708190918,-1.2230873107910156,0.0,19.0,0.0,3.068089485168457,-1.0879039764404297,0.0,16.75,0.0,3.1385421752929688,-1.1268854141235352,0.0,13.0,0.0,2.558469772338867,0.1087188720703125,0.0,22.25,0.0,2.617478370666504,0.1055002212524414,0.0,28.5,0.0,2.6460886001586914,0.12874603271484375,0.0,27.75,0.0,2.7565956115722656,0.16307830810546875,0.0,19.0,,,,,,,,,,,,,,,,,,,,
0.0,-0.14278021454811096,2.9136524200439453,-3.3807191357482225e-06,0.675675630569458,0.09598217904567719,5.51216635358287e-06,0.43577831983566284,0.09042558073997498,2.602071617729962e-06,0.0,2.93576717376709,-0.9562969207763672,-0.19175104796886444,12.0,0.0,2.7980804443359375,-0.4820823669433594,0.19175104796886444,13.25,0.0,2.6178359985351562,0.030755996704101562,-0.3835020959377289,20.25,0.0,2.5151968002319336,0.12052059173583984,-0.3835020959377289,21.0,0.0,2.5452375411987305,0.1373291015625,-0.3835020959377289,24.25,0.0,3.119230270385742,-1.1790990829467773,0.0,12.75,0.0,2.967953681945801,-1.0524988174438477,0.0,18.75,0.0,3.0570030212402344,-1.0879039764404297,0.0,17.25,0.0,2.5577545166015625,0.08547306060791016,0.0,22.75,0.0,2.6160478591918945,0.091552734375,0.0,28.75,0.0,2.648591995239258,0.13196468353271484,0.0,27.75,0.0,2.76339054107666,0.10442733764648438,0.0,19.5,,,,,,,,,,,,,,,,,,,,,,,,,
0.0,-0.052791982889175415,2.8925750255584717,-2.357945277253748e-06,0.7513527870178223,0.0829724669456482,6.263215709623182e-06,0.4615270793437958,0.09051506966352463,2.867034709197469e-06,0.0,2.887129783630371,-1.1715888977050781,-0.19175104796886444,13.5,0.0,2.5420188903808594,0.10836124420166016,-0.3835020959377289,20.0,0.0,2.582430839538574,0.15091896057128906,-0.3835020959377289,25.0,0.0,2.6181936264038086,0.20885467529296875,-0.3835020959377289,22.75,0.0,2.7419328689575195,0.35512447357177734,-0.3835020959377289,13.5,0.0,3.109574317932129,-1.2205839157104492,0.0,12.5,0.0,2.9497146606445312,-1.0700225830078125,0.0,19.5,0.0,3.063797950744629,-1.0432004928588867,0.0,16.75,0.0,2.784132957458496,0.07724761962890625,0.0,19.75,0.0,2.5502443313598633,0.11408329010009766,0.0,23.0,0.0,2.607107162475586,0.1251697540283203,0.0,28.5,0.0,2.648591995239258,0.14984607696533203,0.0,27.5,,,,,,,,,,,,,,,,,,,,,,,,,
0.0,0.018272411078214645,2.845521926879883,-1.48134881783335e-06,0.7860161066055298,-0.003159940242767334,6.742339792253915e-06,0.4533562958240509,-0.008435636758804321,2.9613636343128746e-06,0.0,2.405405044555664,0.10657310485839844,-0.3835020959377289,14.0,0.0,2.469778060913086,0.1437664031982422,-0.3835020959377289,23.25,0.0,2.513766288757324,0.17023086547851562,-0.5752531439065933,24.25,0.0,2.582073211669922,0.3962516784667969,-0.3835020959377289,20.25,0.0,2.971529960632324,-1.0138750076293945,0.0,19.25,0.0,3.0677318572998047,-1.0113716125488281,0.0,16.25,0.0,2.7877092361450195,0.021457672119140625,0.0,19.5,0.0,2.545595169067383,0.09298324584960938,0.0,23.5,0.0,2.598881721496582,0.09191036224365234,0.0,28.75,0.0,2.6432275772094727,0.102996826171875,0.0,27.25,,,,,,,,,,,,,,,,,,,,,,,,,,,,,,,,,,,
0.0,0.09547848254442215,2.806058883666992,-6.734082376169681e-07,0.8177919983863831,-0.09267295151948929,7.090942744980566e-06,0.4400651454925537,-0.11715478450059891,2.9741026992269326e-06,0.0,3.017306327819824,-0.9022951126098633,-0.19175104796886444,14.5,0.0,3.0966997146606445,-1.0067224502563477,-0.19175104796886444,15.25,0.0,2.8749704360961914,-0.5925893783569336,-0.19175104796886444,12.75,0.0,2.4433135986328125,0.07224082946777344,-0.3835020959377289,17.75,0.0,2.6668310165405273,0.0711679458618164,-0.3835020959377289,15.25,0.0,2.5316476821899414,0.10442733764648438,-0.3835020959377289,18.25,0.0,3.060579299926758,-0.9866952896118164,0.0,18.0,0.0,2.8170347213745117,-0.2353191375732422,0.0,20.25,0.0,2.604246139526367,0.07009506225585938,0.0,28.5,0.0,2.6532411575317383,0.080108642578125,0.0,27.25,,,,,,,,,,,,,,,,,,,,,,,,,,,,,,,,,,,
0.0,0.12366729229688644,2.7580554485321045,-2.554294553647196e-10,0.7791618704795837,-0.16671042144298553,7.314135018532397e-06,0.3774653375148773,-0.18063104152679443,2.9334198643482523e-06,0.0,2.7354955673217773,-1.2656450271606445,-0.19175104796886444,12.25,0.0,2.8595924377441406,-1.2191534042358398,-0.19175104796886444,14.0,0.0,2.3789405822753906,0.21386146545410156,-0.7670041918754578,17.5,0.0,2.443671226501465,0.27358531951904297,-0.3835020959377289,25.5,0.0,2.4601221084594727,0.3007650375366211,-0.3835020959377289,25.75,0.0,2.5348663330078125,0.3247261047363281,-0.3835020959377289,17.25,0.0,2.9529333114624023,-0.9934902191162109,0.0,20.0,0.0,3.0459165573120117,-1.0228157043457031,0.0,17.25,0.0,2.8134584426879883,-0.37550926208496094,0.0,20.0,0.0,2.643585205078125,0.08976459503173828,0.0,27.25,,,,,,,,,,,,,,,,,,,,,,,,,,,,,,,,,,,
0.0,0.18892395496368408,2.7084524631500244,5.58676788386947e-07,0.7891353964805603,-0.2493477761745453,7.3912160587497056e-06,0.35339704155921936,-0.25578129291534424,2.8156478037999477e-06,0.0,2.8839111328125,-1.120448112487793,-1.1505062878131866,16.5,0.0,2.910017967224121,-1.282811164855957,-1.1505062878131866,12.5,0.0,2.832770347595215,-0.891566276550293,-1.1505062878131866,14.25,0.0,2.601742744445801,-0.027179718017578125,-0.19175104796886444,17.0,0.0,2.388596534729004,0.22351741790771484,-0.19175104796886444,14.25,0.0,2.460479736328125,0.1888275146484375,-0.19175104796886444,23.75,0.0,2.4869441986083984,0.12195110321044922,-0.19175104796886444,24.0,0.0,2.950429916381836,-1.008152961730957,0.0,20.0,0.0,3.0584335327148438,-0.9723901748657227,0.0,17.75,0.0,2.8177499771118164,-0.1348257064819336,0.0,19.5,0.0,2.397894859313965,0.1806020736694336,0.0,16.5,0.0,2.4983882904052734,0.19633769989013672,0.0,25.75,0.0,2.5763511657714844,0.16736984252929688,0.0,28.75,0.0,2.647519111633301,0.11730194091796875,0.0,27.25,,,,,,,,,,,,,,,
0.0,0.24321547150611877,2.6443374156951904,1.0102787655341672e-06,0.778927206993103,-0.34355252981185913,7.350603027589386e-06,0.31543803215026855,-0.3310704827308655,2.6452503334439825e-06,0.0,2.837061882019043,-1.1841058731079102,-0.19175104796886444,12.0,0.0,2.247333526611328,0.20205974578857422,-0.19175104796886444,19.75,0.0,2.256631851196289,0.2911090850830078,-0.19175104796886444,18.75,0.0,3.0623674392700195,-0.9849071502685547,0.0,17.5,0.0,2.8460025787353516,-0.7442235946655273,0.0,19.0,0.0,2.459406852722168,0.19562244415283203,0.0,25.5,0.0,2.520918846130371,0.20885467529296875,0.0,27.0,0.0,2.602100372314453,0.24962425231933594,0.0,22.5,,,,,,,,,,,,,,,,,,,,,,,,,,,,,,,,,,,,,,,,,,,,,
0.0,0.2261890023946762,2.6161956787109375,1.4056731743039563e-06,0.669165313243866,-0.36102816462516785,7.275756615854334e-06,0.2094065397977829,-0.31645551323890686,2.473776476108469e-06,0.0,2.775907516479492,-1.178741455078125,-0.3835020959377289,14.25,0.0,2.8874874114990234,-1.051783561706543,-0.3835020959377289,15.0,0.0,2.4379491806030273,0.18846988677978516,-0.3835020959377289,20.0,0.0,2.3224353790283203,0.23317337036132812,0.19175104796886444,17.75,0.0,2.383589744567871,0.23853778839111328,-0.3835020959377289,22.0,0.0,2.899646759033203,-1.0453462600708008,0.0,18.75,0.0,3.025174140930176,-0.9706020355224609,0.0,15.0,0.0,2.4508237838745117,0.2167224884033203,0.0,26.25,0.0,2.512335777282715,0.22029876708984375,0.0,27.25,0.0,2.617478370666504,0.10192394256591797,0.0,22.5,,,,,,,,,,,,,,,,,,,,,,,,,,,,,,,,,,,
0.0,0.2893047630786896,2.5523645877838135,1.68458143434691e-06,0.677720844745636,-0.4397353529930115,7.050891326798592e-06,0.19713440537452698,-0.3673858940601349,2.2269721284828847e-06,0.0,2.772688865661621,-1.1751651763916016,-0.3835020959377289,17.25,0.0,2.820611000061035,-1.1701583862304688,-0.3835020959377289,18.0,0.0,2.918243408203125,-1.1816024780273438,-0.3835020959377289,12.5,0.0,2.398252487182617,0.03504753112792969,-0.3835020959377289,22.75,0.0,2.438664436340332,-0.00858306884765625,-0.3835020959377289,20.5,0.0,2.322077751159668,0.15914440155029297,-0.3835020959377289,18.5,0.0,3.017306327819824,-0.9691715240478516,0.0,13.75,,,,,,,,,,,,,,,,,,,,,,,,,,,,,,,,,,,,,,,,,,,,,,,,,,
0.0,0.3041432797908783,2.5206453800201416,1.9277263163530733e-06,0.6270772218704224,-0.43046504259109497,6.831179689470446e-06,0.14995433390140533,-0.30565333366394043,2.0092409158678493e-06,0.0,2.7430057525634766,-1.0907649993896484,-0.9587552398443222,15.5,0.0,2.8002262115478516,-1.1086463928222656,-0.19175104796886444,13.75,0.0,2.624988555908203,-0.7052421569824219,-0.3835020959377289,12.5,0.0,2.44295597076416,-0.18453598022460938,-0.3835020959377289,18.0,0.0,2.348184585571289,0.16736984252929688,-0.3835020959377289,21.75,0.0,2.277374267578125,0.2903938293457031,-0.3835020959377289,19.5,0.0,3.025174140930176,-0.9548664093017578,0.0,13.5,0.0,2.5849342346191406,0.17917156219482422,0.0,16.25,0.0,2.452254295349121,0.2886056900024414,0.0,24.5,,,,,,,,,,,,,,,,,,,,,,,,,,,,,,,,,,,,,,,,
0.0,0.35582077503204346,2.4650025367736816,2.3255872747540707e-06,0.6281999349594116,-0.4624910354614258,6.744207439624006e-06,0.14183159172534943,-0.2945294678211212,1.8645230284164427e-06,0.0,2.501249313354492,-1.374363899230957,-0.3835020959377289,13.25,0.0,2.6421546936035156,-1.3246536254882812,-0.3835020959377289,18.0,0.0,2.6407241821289062,-1.3761520385742188,-0.3835020959377289,15.25,0.0,2.342820167541504,0.0711679458618164,-0.5752531439065933,21.25,0.0,2.407193183898926,-0.07617473602294922,-0.5752531439065933,16.5,0.0,2.2913217544555664,0.20420551300048828,-0.3835020959377289,19.5,0.0,3.0083656311035156,-0.9695291519165039,0.0,13.75,0.0,2.5920867919921875,0.10228157043457031,0.0,15.0,0.0,2.4340152740478516,0.31507015228271484,0.0,24.25,,,,,,,,,,,,,,,,,,,,,,,,,,,,,,,,,,,,,,,,
0.0,0.37707650661468506,2.4274849891662598,2.4800424398563337e-06,0.5862168073654175,-0.4586295783519745,6.414388735720422e-06,0.10424269735813141,-0.25017911195755005,1.604412545930245e-06,0.0,2.5273561477661133,-1.1093616485595703,-0.3835020959377289,16.5,0.0,2.7115345001220703,-1.053929328918457,-0.3835020959377289,18.0,0.0,2.844572067260742,-0.9140968322753906,-0.3835020959377289,14.75,0.0,2.4025440216064453,-0.1380443572998047,-0.19175104796886444,19.25,0.0,2.3217201232910156,0.05829334259033203,-0.5752531439065933,25.75,0.0,2.293109893798828,0.1423358917236328,-0.5752531439065933,24.5,0.0,2.613544464111328,-1.074671745300293,0.0,15.5,0.0,2.4175643920898438,0.2714395523071289,0.0,24.25,0.0,2.5670528411865234,0.3540515899658203,0.0,14.5,,,,,,,,,,,,,,,,,,,,,,,,,,,,,,,,,,,,,,,,
0.0,0.3394615948200226,2.396631956100464,2.549937107687583e-06,0.4541386663913727,-0.45277655124664307,6.000586381560424e-06,-0.0009079277515411377,-0.22078055143356323,1.309737967858382e-06,0.0,2.548813819885254,-1.1833906173706055,-0.5752531439065933,14.0,0.0,2.6693344116210938,-1.1887550354003906,-0.5752531439065933,17.0,0.0,2.781987190246582,-1.0728836059570312,-0.5752531439065933,13.5,0.0,2.40325927734375,-0.32579898834228516,-0.7670041918754578,13.25,0.0,2.2798776626586914,-0.030755996704101562,-0.5752531439065933,20.75,0.0,2.1071434020996094,0.3064870834350586,-0.5752531439065933,15.75,0.0,2.1790266036987305,0.26285648345947266,-0.5752531439065933,22.25,0.0,2.545595169067383,-1.2642145156860352,0.0,16.25,0.0,2.748727798461914,-1.153707504272461,0.0,19.75,,,,,,,,,,,,,,,,,,,,,,,,,,,,,,,,,,,,,,,,
0.0,0.3125070631504059,2.3640706539154053,2.555499349909951e-06,0.3482012450695038,-0.4482099711894989,5.530239377549151e-06,-0.07837148010730743,-0.19472354650497437,1.0010156756834476e-06,0.0,2.419710159301758,-1.3332366943359375,-0.5752531439065933,17.0,0.0,2.4737119674682617,-1.3461112976074219,-0.9587552398443222,14.25,0.0,2.373218536376953,-0.6501674652099609,-0.5752531439065933,13.0,0.0,2.231597900390625,-0.09834766387939453,-0.5752531439065933,22.75,0.0,2.161860466003418,0.0171661376953125,-0.7670041918754578,26.5,0.0,2.0731687545776367,0.30291080474853516,-0.5752531439065933,22.25,0.0,2.004861831665039,0.33080577850341797,-0.5752531439065933,13.5,0.0,2.523064613342285,-1.2842416763305664,0.0,16.75,0.0,2.732992172241211,-1.1587142944335938,0.0,20.0,,,,,,,,,,,,,,,,,,,,,,,,,,,,,,,,,,,,,,,,
0.0,0.2732502222061157,2.3280513286590576,2.498162984920782e-06,0.2294338494539261,-0.45724955201148987,5.004978447686881e-06,-0.16183209419250488,-0.19247861206531525,6.760884616596741e-07,0.0,2.3113489151000977,-1.2123584747314453,-0.3835020959377289,12.25,0.0,2.4547576904296875,-1.2502670288085938,-0.3835020959377289,16.75,0.0,2.5398731231689453,-1.2273788452148438,-0.7670041918754578,13.5,0.0,2.2040605545043945,-0.03540515899658203,-0.7670041918754578,15.5,0.0,1.9780397415161133,0.15664100646972656,-0.5752531439065933,18.0,0.0,2.029538154602051,0.2460479736328125,-0.5752531439065933,24.75,0.0,2.0570755004882812,0.3139972686767578,-0.5752531439065933,24.5,0.0,2.475857734680176,-1.3568401336669922,0.0,18.75,0.0,2.7179718017578125,-1.1415481567382812,0.0,21.0,0.0,2.78627872467041,-1.101851463317871,0.0,19.5,,,,,,,,,,,,,,,,,,,,,,,,,,,,,,,,,,,
0.0,0.224196195602417,2.298610210418701,2.4014454993448453e-06,0.10797759890556335,-0.45147281885147095,4.4631324271904305e-06,-0.23974961042404175,-0.1738404631614685,3.6122347069067473e-07,0.0,2.3353099822998047,-1.3318061828613281,-0.5752531439065933,17.75,0.0,2.2727251052856445,-1.224517822265625,-0.5752531439065933,16.0,0.0,2.1936893463134766,-0.4792213439941406,-0.3835020959377289,16.25,0.0,2.0928382873535156,-0.3293752670288086,-0.7670041918754578,23.25,0.0,2.0395517349243164,-0.08368492126464844,-0.7670041918754578,21.25,0.0,1.9154548645019531,0.16808509826660156,-0.7670041918754578,16.25,0.0,2.4611949920654297,-1.3289451599121094,0.0,18.25,0.0,2.688288688659668,-1.1401176452636719,0.0,20.25,,,,,,,,,,,,,,,,,,,,,,,,,,,,,,,,,,,,,,,,,,,,,
0.0,0.18617263436317444,2.2460668087005615,2.111219146172516e-06,0.009855829179286957,-0.4919901490211487,3.733949597517494e-06,-0.29749566316604614,-0.20880776643753052,-3.9758305092618684e-08,0.0,2.2602081298828125,-1.2331008911132812,-0.3835020959377289,18.75,0.0,2.1747350692749023,-1.0042190551757812,-0.3835020959377289,16.0,0.0,2.349257469177246,-1.2023448944091797,-0.3835020959377289,16.75,0.0,2.031683921813965,-0.22137165069580078,-0.5752531439065933,20.25,0.0,1.936197280883789,0.044345855712890625,-0.7670041918754578,24.5,0.0,1.822829246520996,0.2206563949584961,-0.7670041918754578,15.75,0.0,1.8811225891113281,0.19598007202148438,-0.7670041918754578,23.5,0.0,2.4504661560058594,-1.278519630432129,0.0,19.25,0.0,2.6464462280273438,-1.1458396911621094,0.0,19.25,0.0,2.762317657470703,-1.1036396026611328,0.0,15.25,,,,,,,,,,,,,,,,,,,,,,,,,,,,,,,,,,,
0.0,0.12729986011981964,2.1908414363861084,1.74793694895925e-06,-0.1101243793964386,-0.5319444537162781,2.962586222565733e-06,-0.36723726987838745,-0.23897607624530792,-4.4279704525251873e-07,0.0,2.0459890365600586,-1.192331314086914,-0.3835020959377289,12.5,0.0,2.300262451171875,-1.1594295501708984,-0.3835020959377289,15.0,0.0,2.371072769165039,-1.175522804260254,-0.5752531439065933,13.25,0.0,1.990199089050293,-0.41484832763671875,-0.7670041918754578,18.25,0.0,1.919388771057129,-0.3072023391723633,-0.7670041918754578,22.25,0.0,1.8260478973388672,0.27108192443847656,-0.7670041918754578,22.75,0.0,1.761317253112793,0.31685829162597656,-0.7670041918754578,18.0,0.0,2.647519111633301,-1.1404752731323242,0.0,18.5,0.0,2.7920007705688477,-1.0582208633422852,0.0,14.75,,,,,,,,,,,,,,,,,,,,,,,,,,,,,,,,,,,,,,,,
0.0,0.14242516458034515,2.1202328205108643,1.552983462715929e-06,-0.1047055721282959,-0.580480694770813,2.3999743916647276e-06,-0.33557945489883423,-0.260958731174469,-7.156644414862967e-07,0.0,2.2219419479370117,-1.2627840042114258,-0.19175104796886444,14.0,0.0,1.9751787185668945,-0.5475282669067383,-0.9587552398443222,13.5,0.0,1.863241195678711,-0.05543231964111328,-0.3835020959377289,19.5,0.0,1.7920732498168945,0.16951560974121094,-0.7670041918754578,24.0,0.0,1.7516613006591797,0.17523765563964844,-0.7670041918754578,21.0,0.0,2.6532411575317383,-1.1208057403564453,0.0,18.5,0.0,2.4029016494750977,-0.38373470306396484,0.0,16.0,0.0,1.8900632858276367,0.30434131622314453,0.0,18.5,,,,,,,,,,,,,,,,,,,,,,,,,,,,,,,,,,,,,,,,,,,,,
0.0,0.03729822486639023,2.0672686100006104,1.3634381730298628e-06,-0.28585100173950195,-0.6056244969367981,1.8727353108261013e-06,-0.4514549970626831,-0.27097949385643005,-9.604005981600494e-07,0.0,2.003788948059082,-1.4365911483764648,-0.9587552398443222,16.5,0.0,2.0717382431030273,-1.4090538024902344,-0.9587552398443222,17.25,0.0,1.8167495727539062,-0.1806020736694336,-0.9587552398443222,15.5,0.0,1.6980171203613281,0.08189678192138672,-0.9587552398443222,24.0,0.0,1.6322135925292969,0.2560615539550781,-0.9587552398443222,26.25,0.0,1.5993118286132812,0.2993345260620117,-0.9587552398443222,21.0,0.0,1.9980669021606445,0.24890899658203125,0.0,23.25,,,,,,,,,,,,,,,,,,,,,,,,,,,,,,,,,,,,,,,,,,,,,,,,,,
0.0,-0.025366511195898056,2.004189968109131,1.1070644632127369e-06,-0.382158488035202,-0.6390919089317322,1.2980233350390336e-06,-0.49195751547813416,-0.28203868865966797,-1.21865423352574e-06,0.0,1.8585920333862305,-1.4988183975219727,-0.19175104796886444,16.25,0.0,1.7734766006469727,-1.3232231140136719,-0.19175104796886444,13.25,0.0,2.068161964416504,-1.409769058227539,-1.342257335782051,15.0,0.0,1.7774105072021484,-0.571131706237793,-1.1505062878131866,13.25,0.0,1.672983169555664,-0.13697147369384766,-0.7670041918754578,20.25,0.0,1.5953779220581055,-0.007867813110351562,-0.7670041918754578,20.5,0.0,1.6214847564697266,-0.012159347534179688,-0.7670041918754578,24.0,0.0,1.7734766006469727,0.1634359359741211,0.0,21.75,,,,,,,,,,,,,,,,,,,,,,,,,,,,,,,,,,,,,,,,,,,,,
0.0,-0.1306261420249939,1.963768482208252,8.499620776092343e-07,-0.5345830321311951,-0.6522347331047058,7.543020501543651e-07,-0.5736913681030273,-0.28866830468177795,-1.450158265470236e-06,0.0,1.8482208251953125,-1.1980533599853516,-1.9175104796886444,14.25,0.0,1.9147396087646484,-1.2602806091308594,-1.9175104796886444,13.75,0.0,1.610398292541504,-0.3393888473510742,-0.7670041918754578,22.0,0.0,1.5621185302734375,-0.20635128021240234,-0.7670041918754578,28.0,0.0,1.4780759811401367,-0.08511543273925781,-0.7670041918754578,19.5,0.0,1.531362533569336,-0.12195110321044922,-0.7670041918754578,27.25,0.0,2.0914077758789062,-1.1976957321166992,0.0,15.75,0.0,2.2219419479370117,-1.2917518615722656,0.0,18.25,0.0,1.9301176071166992,0.023603439331054688,0.0,20.25,,,,,,,,,,,,,,,,,,,,,,,,,,,,,,,,,,,,,,,,
0.0,-0.17708219587802887,1.905423879623413,6.839100024080835e-07,-0.5740892291069031,-0.672213077545166,3.414322975459072e-07,-0.5586085915565491,-0.2830962538719177,-1.5984804804247688e-06,0.0,1.7377138137817383,-1.3804435729980469,-0.3835020959377289,16.0,0.0,1.8349885940551758,-1.3689994812011719,-0.3835020959377289,14.25,0.0,1.542806625366211,-0.2614259719848633,-0.7670041918754578,26.0,0.0,1.569986343383789,-0.26035308837890625,-0.3835020959377289,28.25,0.0,1.6082525253295898,-0.29468536376953125,-0.3835020959377289,22.0,0.0,1.4744997024536133,-0.18167495727539062,-0.7670041918754578,16.75,0.0,2.001643180847168,-1.2892484664916992,0.0,18.0,0.0,2.1697282791137695,-1.269221305847168,0.0,17.75,0.0,1.598954200744629,-0.1609325408935547,0.0,25.5,0.0,1.5349388122558594,-0.10514259338378906,0.0,24.5,0.0,1.8932819366455078,-0.1366138458251953,0.0,19.25,0.0,1.4652013778686523,-0.02753734588623047,0.0,15.75,0.0,1.7319917678833008,-0.03790855407714844,0.0,22.75,,,,,,,,,,,,,,,,,,,,
0.0,-0.20749634504318237,1.8293815851211548,5.095949973110692e-07,-0.5619800686836243,-0.7604231834411621,-5.322584684108733e-08,-0.49336838722229004,-0.38340193033218384,-1.734968009259319e-06,0.0,1.788496971130371,-1.272439956665039,-0.5752531439065933,14.0,0.0,1.9147396087646484,-1.2634992599487305,-0.3835020959377289,13.0,0.0,1.5066862106323242,-0.34868717193603516,-0.7670041918754578,25.25,0.0,1.566767692565918,-0.4477500915527344,-0.7670041918754578,17.25,0.0,1.4462471008300781,-0.057220458984375,-0.7670041918754578,25.25,0.0,1.3343095779418945,0.18024444580078125,-0.7670041918754578,24.5,0.0,1.2652873992919922,0.2549886703491211,-0.7670041918754578,18.75,0.0,2.1958351135253906,-1.221299171447754,0.0,16.75,0.0,2.352118492126465,-1.1855363845825195,0.0,13.75,0.0,1.5649795532226562,-0.21278858184814453,0.0,25.25,0.0,1.7141103744506836,-0.07939338684082031,0.0,21.75,0.0,1.889348030090332,-0.09369850158691406,0.0,18.25,,,,,,,,,,,,,,,,,,,,,,,,,
0.0,-0.30032047629356384,1.7524882555007935,3.5758012018050067e-07,-0.6632530689239502,-0.8251954317092896,-3.924452585124527e-07,-0.5321250557899475,-0.43271782994270325,-1.8320718027098337e-06,0.0,1.4001131057739258,-0.5282163619995117,-0.7670041918754578,18.0,0.0,1.319289207458496,-0.05221366882324219,-0.7670041918754578,20.25,0.0,1.2356042861938477,0.09191036224365234,-0.7670041918754578,22.0,0.0,1.2552738189697266,0.06866455078125,-0.7670041918754578,24.75,0.0,3.254055976867676,0.19347667694091797,-0.9587552398443222,13.25,0.0,2.112865447998047,-1.2989044189453125,0.0,14.5,0.0,1.5610456466674805,-0.2224445343017578,0.0,25.0,0.0,1.8385648727416992,-0.23853778839111328,0.0,15.5,0.0,1.6955137252807617,-0.14340877532958984,0.0,21.0,0.0,1.2545585632324219,0.09870529174804688,0.0,18.25,,,,,,,,,,,,,,,,,,,,,,,,,,,,,,,,,,,
0.0,-0.3499586284160614,1.653150200843811,2.2958997192290553e-07,-0.6624244451522827,-0.9304516315460205,-6.724188210682769e-07,-0.4733843207359314,-0.5295138359069824,-1.890855742203712e-06,0.0,1.3450384140014648,-0.607609748840332,-0.9587552398443222,13.5,0.0,1.249551773071289,-0.4627704620361328,-0.7670041918754578,19.25,0.0,1.146554946899414,-0.04291534423828125,-0.9587552398443222,24.75,0.0,1.166224479675293,-0.0890493392944336,-0.9587552398443222,23.25,0.0,0.9151697158813477,-0.02682209014892578,-0.9587552398443222,18.25,0.0,3.0988454818725586,0.18739700317382812,-1.342257335782051,12.5,0.0,2.0917654037475586,-1.3114213943481445,0.0,14.25,0.0,1.5513896942138672,-0.2532005310058594,0.0,24.75,0.0,1.6690492630004883,-0.2589225769042969,0.0,20.25,0.0,1.4255046844482422,-0.10585784912109375,0.0,25.5,,,,,,,,,,,,,,,,,,,,,,,,,,,,,,,,,,,
0.0,-0.450106680393219,1.5848851203918457,1.0210828094159297e-07,-0.7791092395782471,-0.9256032705307007,-9.280427093472099e-07,-0.542122483253479,-0.4556872844696045,-1.9292372144263936e-06,0.0,1.267075538635254,-0.4799365997314453,-0.5752531439065933,17.25,0.0,1.0968446731567383,0.1316070556640625,-0.7670041918754578,21.75,0.0,1.027822494506836,0.2238750457763672,-0.7670041918754578,28.5,0.0,0.8908510208129883,0.21064281463623047,-0.7670041918754578,27.75,0.0,2.0835399627685547,-1.3196468353271484,0.0,12.75,0.0,1.5399456024169922,-0.274658203125,0.0,24.5,0.0,1.4197826385498047,-0.11622905731201172,0.0,25.5,0.0,1.2992620468139648,0.03612041473388672,0.0,26.0,,,,,,,,,,,,,,,,,,,,,,,,,,,,,,,,,,,,,,,,,,,,,
0.0,-0.4386958181858063,1.524617314338684,-3.5323404201648145e-09,-0.6668696403503418,-0.90556800365448,-1.1257326377744903e-06,-0.39937296509742737,-0.3888908326625824,-1.930216740220203e-06,0.0,1.146554946899414,-0.5636215209960938,-0.5752531439065933,18.25,0.0,1.0932683944702148,-0.4445314407348633,-0.5752531439065933,24.0,0.0,2.653956413269043,-0.03719329833984375,-0.3835020959377289,16.5,0.0,2.682209014892578,-0.017523765563964844,-0.3835020959377289,17.25,0.0,0.9870529174804688,0.0718832015991211,-0.5752531439065933,24.25,0.0,0.8933544158935547,0.2009868621826172,-0.7670041918754578,27.75,0.0,1.5388727188110352,-0.24962425231933594,0.0,23.5,0.0,1.4215707778930664,-0.11408329010009766,0.0,24.0,0.0,1.2788772583007812,0.043272972106933594,0.0,24.75,,,,,,,,,,,,,,,,,,,,,,,,,,,,,,,,,,,,,,,,
0.0,-0.4173305630683899,1.442165493965149,-1.0165662445160706e-07,-0.544579267501831,-0.9069410562515259,-1.2874224921688437e-06,-0.259102463722229,-0.34430283308029175,-1.9096328287560027e-06,0.0,1.1229515075683594,-0.6262063980102539,-0.9587552398443222,16.75,0.0,1.0346174240112305,-0.4076957702636719,-0.7670041918754578,22.75,0.0,0.9516477584838867,-0.11050701141357422,-0.7670041918754578,31.5,0.0,0.9123086929321289,-0.07832050323486328,-0.7670041918754578,35.0,0.0,1.5953779220581055,-0.3883838653564453,0.0,17.25,0.0,1.511693000793457,-0.3275871276855469,0.0,22.75,0.0,1.4029741287231445,-0.11336803436279297,0.0,23.75,,,,,,,,,,,,,,,,,,,,,,,,,,,,,,,,,,,,,,,,,,,,,,,,,,
0.0,-0.3879490792751312,1.338284969329834,-1.6805091718197218e-07,-0.4094632863998413,-0.9490938782691956,-1.3785423789158813e-06,-0.11224827170372009,-0.35645195841789246,-1.8467765130480984e-06,0.0,1.066446304321289,-0.34546852111816406,-0.5752531439065933,18.0,0.0,0.9262561798095703,-0.025391578674316406,-0.5752531439065933,22.25,0.0,0.9126663208007812,0.07045269012451172,-0.9587552398443222,29.5,0.0,1.5109777450561523,-0.3032684326171875,0.0,22.5,0.0,1.5946626663208008,-0.32579898834228516,0.0,16.0,0.0,1.416921615600586,-0.14340877532958984,0.0,24.0,,,,,,,,,,,,,,,,,,,,,,,,,,,,,,,,,,,,,,,,,,,,,,,,,,,,,,,
0.0,-0.2866770029067993,1.2799217700958252,-2.455755065966514e-07,-0.17329224944114685,-0.8761562705039978,-1.4706478168591275e-06,0.09474274516105652,-0.22882364690303802,-1.787644691830792e-06,0.0,0.8772611618041992,-0.7224082946777344,-0.5752531439065933,16.0,0.0,0.8794069290161133,-0.4194974899291992,-0.5752531439065933,21.0,0.0,0.8661746978759766,-0.2961158752441406,-0.7670041918754578,24.25,0.0,2.555251121520996,-0.10907649993896484,-0.3835020959377289,13.0,0.0,1.6322135925292969,-1.4265775680541992,0.0,15.25,0.0,1.8807649612426758,-1.3664960861206055,0.0,12.25,0.0,1.5614032745361328,-0.5360841751098633,0.0,12.25,,,,,,,,,,,,,,,,,,,,,,,,,,,,,,,,,,,,,,,,,,,,,,,,,,
0.0,-0.2578304409980774,1.2001549005508423,-3.0777258075431746e-07,-0.08946101367473602,-0.8525967597961426,-1.522215598015464e-06,0.15246352553367615,-0.16063842177391052,-1.708808667899575e-06,0.0,0.8729696273803711,-0.6873607635498047,-0.19175104796886444,13.0,0.0,0.8175373077392578,-0.3236532211303711,-0.5752531439065933,18.75,0.0,0.8808374404907227,-0.2492666244506836,-0.5752531439065933,30.25,,,,,,,,,,,,,,,,,,,,,,,,,,,,,,,,,,,,,,,,,,,,,,,,,,,,,,,,,,,,,,,,,,,,,,
0.0,-0.26237109303474426,1.1013582944869995,-3.459228992142016e-07,-0.06810129433870316,-0.8811370730400085,-1.5220377918012673e-06,0.1573667824268341,-0.16597487032413483,-1.6020734392441227e-06,0.0,0.7596015930175781,-0.5614757537841797,-0.19175104796886444,21.0,0.0,1.0006427764892578,-0.5375146865844727,-0.9587552398443222,14.5,0.0,0.880122184753418,-0.25212764739990234,-0.3835020959377289,28.5,0.0,1.2227296829223633,-0.43523311614990234,0.0,13.5,,,,,,,,,,,,,,,,,,,,,,,,,,,,,,,,,,,,,,,,,,,,,,,,,,,,,,,,,,,,,,,,,
0.0,-0.2112198770046234,1.0308656692504883,-4.035494782783644e-07,0.04706241190433502,-0.8510701656341553,-1.5404818896058714e-06,0.24152934551239014,-0.112590491771698,-1.5130455039980006e-06,0.0,0.8944272994995117,-0.19490718841552734,-0.19175104796886444,25.75,0.0,1.204848289489746,-0.5035400390625,0.0,12.5,,,,,,,,,,,,,,,,,,,,,,,,,,,,,,,,,,,,,,,,,,,,,,,,,,,,,,,,,,,,,,,,,,,,,,,,,,,
0.0,-0.28274598717689514,0.9355664253234863,-4.42167618075473e-07,-0.07291258871555328,-0.8719348311424255,-1.5233733847708208e-06,0.10920350253582001,-0.10576028376817703,-1.4091982620811905e-06,0.0,0.8075237274169922,-0.5042552947998047,0.19175104796886444,16.5,0.0,0.8618831634521484,-0.308990478515625,0.19175104796886444,22.25,,,,,,,,,,,,,,,,,,,,,,,,,,,,,,,,,,,,,,,,,,,,,,,,,,,,,,,,,,,,,,,,,,,,,,,,,,,
