tid,posx,posy,posz,velx,vely,velz,accx,accy,accz,pointx1,pointy1,pointz1,doppler1,snr1,pointx2,pointy2,pointz2,doppler2,snr2,pointx3,pointy3,pointz3,doppler3,snr3,pointx4,pointy4,pointz4,doppler4,snr4,pointx5,pointy5,pointz5,doppler5,snr5,pointx6,pointy6,pointz6,doppler6,snr6,pointx7,pointy7,pointz7,doppler7,snr7,pointx8,pointy8,pointz8,doppler8,snr8,pointx9,pointy9,pointz9,doppler9,snr9,pointx10,pointy10,pointz10,doppler10,snr10,pointx11,pointy11,pointz11,doppler11,snr11,pointx12,pointy12,pointz12,doppler12,snr12,pointx13,pointy13,pointz13,doppler13,snr13,pointx14,pointy14,pointz14,doppler14,snr14
0.0,-0.09127999097108841,2.9560816287994385,0.008813802152872086,-0.5159252882003784,-0.2716071307659149,-0.09543183445930481,-0.19941318035125732,-0.27586182951927185,-0.024731650948524475,0.0,3.314852714538574,-1.0124444961547852,-0.3835020959377289,22.0,0.0,3.404974937438965,-0.9591579437255859,-0.3835020959377289,17.75,0.0,3.1921863555908203,-0.5811452865600586,-0.3835020959377289,21.0,0.0,2.968311309814453,0.07367134094238281,-0.3835020959377289,29.25,0.0,3.0101537704467773,0.04184246063232422,-0.3835020959377289,27.25,0.0,2.932906150817871,0.0940561294555664,-0.3835020959377289,23.0,0.0,3.3420324325561523,-1.6815662384033203,0.0,15.5,0.0,3.1728744506835938,-0.1798868179321289,0.0,24.5,0.0,3.0570030212402344,0.09655952453613281,0.0,29.5,0.0,2.9518604278564453,0.13875961303710938,0.0,20.75,0.0,3.010869026184082,0.1169443130493164,0.0,29.0,,,,,,,,,,,,,,,
0.0,-0.16513240337371826,2.913318395614624,0.0009676074259914458,-0.5737878680229187,-0.3833692669868469,-0.09368838369846344,-0.20746809244155884,-0.4862719178199768,-0.02078796550631523,0.0,3.207564353942871,-1.2227296829223633,-0.5752531439065933,16.5,0.0,3.2984018325805664,-1.450181007385254,-0.5752531439065933,19.75,0.0,3.4171342849731445,-1.502394676208496,-0.5752531439065933,15.75,0.0,3.308415412902832,-1.221299171447754,-0.5752531439065933,21.0,0.0,2.867460250854492,0.23496150970458984,-0.5752531439065933,19.75,0.0,2.897500991821289,0.18846988677978516,-0.5752531439065933,22.5,0.0,2.957582473754883,0.263214111328125,-0.5752531439065933,17.25,0.0,3.064870834350586,0.050067901611328125,0.0,28.0,0.0,2.936840057373047,0.13446807861328125,0.0,20.75,0.0,3.0001401901245117,0.09870529174804688,0.0,27.5,,,,,,,,,,,,,,,,,,,,
0.0,-0.26446494460105896,2.8608763217926025,-0.00415233476087451,-0.6634666323661804,-0.5133573412895203,-0.08641289174556732,-0.2371981143951416,-0.6824029684066772,-0.011817900463938713,0.0,3.141045570373535,-1.2320280075073242,-0.5752531439065933,19.0,0.0,3.229379653930664,-1.257777214050293,-0.5752531439065933,19.75,0.0,3.2683610916137695,-1.4376640319824219,-0.5752531439065933,16.25,0.0,3.031611442565918,-0.6673336029052734,-0.5752531439065933,14.0,0.0,2.749800682067871,0.20313262939453125,-0.7670041918754578,12.5,0.0,2.8148889541625977,0.19919872283935547,-0.7670041918754578,21.0,0.0,2.8374195098876953,0.19311904907226562,-0.5752531439065933,20.5,0.0,3.3838748931884766,-1.6068220138549805,0.0,14.75,0.0,3.2901763916015625,-1.4165639877319336,0.0,18.0,0.0,3.2819509506225586,-1.0682344436645508,0.0,23.5,0.0,2.9189586639404297,0.1462697982788086,0.0,22.5,0.0,2.987980842590332,0.11587142944335938,0.0,28.25,,,,,,,,,,
0.0,-0.34971171617507935,2.8005483150482178,-0.007473465520888567,-0.7061553597450256,-0.6400934457778931,-0.07626035809516907,-0.22813409566879272,-0.8225013017654419,-0.00027520954608917236,0.0,3.1718015670776367,-1.5889406204223633,-0.3835020959377289,16.25,0.0,3.03804874420166,-1.1730194091796875,-0.7670041918754578,24.25,0.0,3.1110048294067383,-1.358628273010254,-0.7670041918754578,19.0,0.0,2.9947757720947266,-1.090407371520996,-0.5752531439065933,24.75,0.0,2.7093887329101562,0.1398324966430664,-0.7670041918754578,22.25,0.0,2.71761417388916,0.17452239990234375,-0.7670041918754578,25.5,0.0,2.810955047607422,0.36656856536865234,-0.5752531439065933,20.25,0.0,3.3037662506103516,-1.3518333435058594,0.0,18.25,0.0,3.231167793273926,-1.153707504272461,0.0,20.25,0.0,2.738356590270996,0.13911724090576172,0.0,19.5,0.0,2.8388500213623047,0.11229515075683594,0.0,25.75,0.0,2.931833267211914,0.11873245239257812,0.0,28.0,,,,,,,,,,
0.0,-0.35409438610076904,2.7376585006713867,-0.008788378909230232,-0.5828803777694702,-0.741766095161438,-0.06315967440605164,-0.06509149074554443,-0.8881584405899048,0.013337304815649986,0.0,3.0215978622436523,-1.5660524368286133,-0.3835020959377289,16.0,0.0,3.001570701599121,-0.7145404815673828,-0.9587552398443222,21.0,0.0,3.1453371047973633,-0.7839202880859375,-0.9587552398443222,17.25,0.0,2.6189088821411133,0.0457763671875,-0.7670041918754578,17.5,0.0,2.6900768280029297,0.048995018005371094,-0.7670041918754578,29.5,0.0,2.693653106689453,0.0514984130859375,-0.7670041918754578,31.5,0.0,2.776622772216797,0.04076957702636719,-0.7670041918754578,24.25,0.0,3.2225847244262695,-1.21307373046875,0.0,20.75,0.0,2.888202667236328,0.16021728515625,0.0,28.25,,,,,,,,,,,,,,,,,,,,,,,,,
0.0,-0.5109643936157227,2.650209903717041,-0.008853325620293617,-0.7679611444473267,-0.8942985534667969,-0.04839283972978592,-0.22884789109230042,-1.0110784769058228,0.02786651998758316,0.0,3.0684471130371094,-1.406550407409668,-0.19175104796886444,12.75,0.0,2.718687057495117,-1.0868310928344727,-0.7670041918754578,31.0,0.0,2.7637481689453125,-1.1773109436035156,-0.7670041918754578,28.25,0.0,2.889275550842285,-1.221299171447754,-0.7670041918754578,17.0,0.0,2.7126073837280273,-0.48029422760009766,-0.7670041918754578,29.25,0.0,2.571702003479004,-0.1201629638671875,-1.1505062878131866,21.0,0.0,2.6335716247558594,-0.16450881958007812,-1.1505062878131866,28.25,0.0,3.139615058898926,-1.684427261352539,0.0,18.25,0.0,3.1932592391967773,-1.2527704238891602,0.0,20.25,,,,,,,,,,,,,,,,,,,,,,,,,
0.0,-0.6668955087661743,2.5422825813293457,-0.007604805286973715,-0.9102064371109009,-1.086332082748413,-0.031519774347543716,-0.31574392318725586,-1.179919958114624,0.04369078949093819,0.0,2.7462244033813477,-2.25985050201416,-2.109261527657509,12.0,0.0,2.8603076934814453,-1.796722412109375,-2.109261527657509,16.5,0.0,2.8363466262817383,-1.4516115188598633,-0.3835020959377289,18.75,0.0,2.7008056640625,-1.1147260665893555,-0.3835020959377289,29.5,0.0,2.775907516479492,-1.156926155090332,-0.3835020959377289,23.25,0.0,2.640366554260254,-0.9212493896484375,-0.3835020959377289,28.0,0.0,2.5420188903808594,-0.4513263702392578,-1.72575943171978,27.0,0.0,2.3589134216308594,-0.3504753112792969,-1.5340083837509155,17.5,0.0,2.4504661560058594,-0.35011768341064453,-1.72575943171978,25.5,0.0,1.7230510711669922,-1.398324966430664,0.0,18.0,0.0,3.1517744064331055,-1.6644001007080078,0.0,18.0,0.0,2.794504165649414,-0.7749795913696289,0.0,28.5,,,,,,,,,,
0.0,-0.8676224946975708,2.4183192253112793,-0.0060986620374023914,-1.1591837406158447,-1.254402756690979,-0.017116162925958633,-0.5357670187950134,-1.2588930130004883,0.054281141608953476,0.0,2.6400089263916016,-1.4973878860473633,-0.3835020959377289,23.25,0.0,2.728700637817383,-1.5950202941894531,-1.1505062878131866,18.5,0.0,2.627134323120117,-1.3350248336791992,-0.19175104796886444,24.0,0.0,2.969026565551758,-1.5392303466796875,0.3835020959377289,12.5,0.0,2.362489700317383,-0.8947849273681641,-2.3010125756263733,23.25,0.0,2.574920654296875,-1.1086463928222656,-0.3835020959377289,22.5,0.0,2.1518468856811523,-0.6802082061767578,-1.1505062878131866,28.0,0.0,2.2094249725341797,-0.7306337356567383,-1.1505062878131866,27.75,0.0,3.1789541244506836,-1.5921592712402344,0.0,16.5,0.0,2.1872520446777344,-0.7131099700927734,0.0,22.0,0.0,2.7751922607421875,-0.8561611175537109,0.0,26.5,,,,,,,,,,,,,,,
0.0,-1.0351765155792236,2.275753974914551,-0.004311976954340935,-1.2691227197647095,-1.450477957725525,-0.003722386434674263,-0.5586468577384949,-1.3801041841506958,0.06275254487991333,0.0,2.112150192260742,-1.3121366500854492,-2.3010125756263733,18.25,0.0,2.2881031036376953,-1.420140266418457,-2.3010125756263733,12.25,0.0,2.555966377258301,-1.4090538024902344,-0.19175104796886444,14.25,0.0,2.683281898498535,-1.6247034072875977,-0.19175104796886444,14.0,0.0,2.9872655868530273,-1.6307830810546875,-0.19175104796886444,17.0,0.0,2.089262008666992,-1.0124444961547852,-2.3010125756263733,25.5,0.0,2.9325485229492188,-1.5588998794555664,-0.19175104796886444,17.5,0.0,1.8829107284545898,-0.7252693176269531,-0.9587552398443222,13.75,0.0,1.978754997253418,-0.8486509323120117,-0.9587552398443222,27.75,0.0,3.0362606048583984,-1.5499591827392578,0.0,19.25,0.0,3.1238794326782227,-1.683354377746582,0.0,16.0,0.0,2.067446708679199,-0.7867813110351562,0.0,25.25,0.0,2.7208328247070312,-1.0592937469482422,0.0,22.5,,,,,
0.0,-1.154228687286377,2.128187656402588,-0.0030028684996068478,-1.288323998451233,-1.5897363424301147,0.005598041228950024,-0.5120559334754944,-1.3912049531936646,0.06572312861680984,0.0,2.3020505905151367,-1.548171043395996,-1.1505062878131866,13.0,0.0,2.5069713592529297,-1.5267133712768555,-0.9587552398443222,15.5,0.0,2.627134323120117,-1.5560388565063477,-0.9587552398443222,14.75,0.0,1.8324851989746094,-0.8751153945922852,-0.5752531439065933,15.25,0.0,1.9075870513916016,-0.9552240371704102,-0.7670041918754578,23.75,0.0,2.063155174255371,-0.9702444076538086,-1.1505062878131866,19.75,0.0,2.95865535736084,-1.6622543334960938,0.0,17.75,0.0,3.076314926147461,-1.7319917678833008,0.0,13.75,0.0,2.031683921813965,-0.8164644241333008,0.0,26.0,0.0,2.7086734771728516,-1.0868310928344727,0.0,23.75,,,,,,,,,,,,,,,,,,,,
0.0,-1.287968635559082,1.9676063060760498,-0.0013030623085796833,-1.385688304901123,-1.6898289918899536,0.01373796071857214,-0.5858474373817444,-1.3227418661117554,0.06710081547498703,0.0,1.5732049942016602,-0.9005069732666016,-0.19175104796886444,14.25,0.0,1.6701221466064453,-1.0596513748168945,-0.19175104796886444,12.5,0.0,1.8711090087890625,-1.164078712463379,-0.19175104796886444,20.0,0.0,2.039194107055664,-1.1587142944335938,-0.19175104796886444,17.75,0.0,2.1396875381469727,-1.2810230255126953,-0.19175104796886444,13.5,0.0,2.9436349868774414,-1.6815662384033203,0.0,17.25,0.0,3.0541419982910156,-1.7673969268798828,0.0,13.0,0.0,2.0241737365722656,-0.836491584777832,0.0,26.25,0.0,2.699732780456543,-1.110076904296875,0.0,23.75,0.0,2.288818359375,-0.7131099700927734,0.0,24.0,,,,,,,,,,,,,,,,,,,,
0.0,0.1408226639032364,3.149500608444214,0.0008804871467873454,0.8680713772773743,-0.47713351249694824,0.0044119274243712425,0.2617993950843811,-0.9096983671188354,0.004000525455921888,0.0,2.9861927032470703,-1.6711950302124023,-0.3835020959377289,14.0,0.0,3.0927658081054688,-1.0281801223754883,-0.5752531439065933,17.75,0.0,2.7669668197631836,0.03361701965332031,-0.5752531439065933,17.5,0.0,2.83205509185791,0.055789947509765625,-0.5752531439065933,25.75,0.0,2.8606653213500977,0.15807151794433594,-0.5752531439065933,26.5,0.0,2.9729604721069336,0.34439563751220703,-0.19175104796886444,20.0,0.0,3.3434629440307617,-1.3060569763183594,0.0,19.0,0.0,3.574848175048828,-1.1211633682250977,0.0,14.5,,,,,,,,,,,,,,,,,,,,,,,,,,,,,,
0.0,0.21134357154369354,3.090240001678467,0.001121436944231391,0.8691551685333252,-0.562416672706604,0.004586170427501202,0.24344952404499054,-0.889265775680542,0.003880135016515851,0.0,3.038763999938965,-1.1333227157592773,-0.7670041918754578,20.75,0.0,3.119230270385742,-1.314997673034668,-0.7670041918754578,15.5,0.0,3.0319690704345703,-0.11336803436279297,-0.5752531439065933,22.75,0.0,2.9479265213012695,0.23424625396728516,-0.19175104796886444,24.75,0.0,2.8824806213378906,0.29218196868896484,-0.19175104796886444,19.75,0.0,3.4096240997314453,-1.107931137084961,0.0,17.5,,,,,,,,,,,,,,,,,,,,,,,,,,,,,,,,,,,,,,,,
0.0,0.12991830706596375,3.0167951583862305,0.0013141075614839792,0.6323564052581787,-0.6531283259391785,0.0046815695241093636,0.03526255488395691,-0.8776559829711914,0.003722971072420478,0.0,2.9758214950561523,-1.3589859008789062,-0.7670041918754578,22.25,0.0,2.9872655868530273,-1.567840576171875,-1.1505062878131866,16.75,0.0,2.9686689376831055,-0.9448528289794922,-0.7670041918754578,21.25,0.0,2.76947021484375,-0.29754638671875,-0.5752531439065933,23.0,0.0,2.859950065612793,-0.3908872604370117,-0.5752531439065933,21.5,0.0,2.726912498474121,-0.2492666244506836,-0.5752531439065933,17.0,0.0,3.4117698669433594,-1.0761022567749023,0.0,17.75,,,,,,,,,,,,,,,,,,,,,,,,,,,,,,,,,,,
0.0,0.015188425779342651,2.953991651535034,0.0014711898984387517,0.3639000952243805,-0.7065752148628235,0.004719993099570274,-0.18000924587249756,-0.8286293745040894,0.003545457264408469,0.0,2.8949975967407227,-1.4061927795410156,-1.72575943171978,21.75,0.0,3.0280351638793945,-1.4358758926391602,-0.5752531439065933,14.25,0.0,2.8345584869384766,-1.2753009796142578,-1.72575943171978,23.5,0.0,2.6983022689819336,-0.43380260467529297,-0.5752531439065933,18.0,0.0,2.8581619262695312,-0.5192756652832031,-0.5752531439065933,23.0,0.0,2.7741193771362305,-0.37086009979248047,-0.5752531439065933,23.25,0.0,2.7451515197753906,-0.2732276916503906,0.0,18.5,,,,,,,,,,,,,,,,,,,,,,,,,,,,,,,,,,,
0.0,-0.09875622391700745,2.8747105598449707,0.0016883773496374488,0.1153821349143982,-0.7843358516693115,0.00479662511497736,-0.3637608289718628,-0.8166497349739075,0.0033966386690735817,0.0,1.610398292541504,-1.4233589172363281,-0.19175104796886444,15.5,0.0,2.7844905853271484,-1.2878179550170898,-2.3010125756263733,13.0,0.0,2.6389360427856445,-1.1730194091796875,-1.72575943171978,17.75,0.0,2.6099681854248047,-0.607609748840332,-0.7670041918754578,20.5,0.0,2.653956413269043,-0.6676912307739258,-0.7670041918754578,21.75,0.0,2.7004480361938477,-0.4398822784423828,0.0,19.5,0.0,2.816319465637207,-0.2288818359375,0.0,25.75,,,,,,,,,,,,,,,,,,,,,,,,,,,,,,,,,,,
0.0,-0.2167714536190033,2.778503894805908,0.001848615356720984,-0.11872375011444092,-0.8730204701423645,0.004794077016413212,-0.5213135480880737,-0.8131029009819031,0.0032144056167453527,0.0,1.8260478973388672,-1.278519630432129,-0.19175104796886444,15.5,0.0,2.480149269104004,-1.3843774795532227,-0.9587552398443222,20.0,0.0,2.4826526641845703,-1.1512041091918945,-0.9587552398443222,25.5,0.0,2.638578414916992,-1.4230012893676758,-1.72575943171978,13.25,0.0,2.5388002395629883,-0.6498098373413086,-0.7670041918754578,25.25,0.0,2.4651288986206055,-0.5475282669067383,-0.7670041918754578,19.75,0.0,2.781987190246582,-0.1895427703857422,0.0,26.25,,,,,,,,,,,,,,,,,,,,,,,,,,,,,,,,,,,
0.0,-0.43760138750076294,2.6227965354919434,0.001897348091006279,-0.48761340975761414,-1.0779374837875366,0.004645610228180885,-0.7699041962623596,-0.9506545662879944,0.0029562334530055523,0.0,2.4422407150268555,-1.3811588287353516,-0.5752531439065933,13.75,0.0,2.0531415939331055,-1.0614395141601562,-1.9175104796886444,25.25,0.0,2.2791624069213867,-1.0603666305541992,-1.342257335782051,26.5,0.0,2.34067440032959,-1.2466907501220703,-0.5752531439065933,22.75,0.0,2.192974090576172,-0.9680986404418945,-1.9175104796886444,27.5,0.0,1.8922090530395508,-1.2087821960449219,0.0,23.75,0.0,2.774477005004883,-0.23031234741210938,0.0,26.0,,,,,,,,,,,,,,,,,,,,,,,,,,,,,,,,,,,
0.0,-0.8475927114486694,2.4934542179107666,0.0015630488051101565,-1.1244587898254395,-1.1509037017822266,0.00412727752700448,-1.2199419736862183,-0.891965925693512,0.0025304199662059546,0.0,2.3828744888305664,-1.307845115661621,-0.19175104796886444,20.75,0.0,2.4805068969726562,-1.371145248413086,-0.19175104796886444,14.25,0.0,2.0678043365478516,-1.0929107666015625,-1.1505062878131866,19.25,0.0,2.2913217544555664,-1.2166500091552734,0.19175104796886444,20.25,0.0,2.0388364791870117,-0.7932186126708984,-1.1505062878131866,23.25,0.0,1.9630193710327148,-1.0718107223510742,0.0,24.0,0.0,2.7387142181396484,-0.41162967681884766,0.0,25.75,,,,,,,,,,,,,,,,,,,,,,,,,,,,,,,,,,,
0.0,-1.112626075744629,2.3112435340881348,0.0013725962489843369,-1.4826549291610718,-1.330430269241333,0.0037446641363203526,-1.4128973484039307,-0.9673862457275391,0.0021888394840061665,0.0,1.7817020416259766,-1.3332366943359375,-0.9587552398443222,22.5,0.0,1.9712448120117188,-1.3157129287719727,-0.9587552398443222,23.5,0.0,2.2058486938476562,-1.2520551681518555,-0.19175104796886444,20.5,0.0,2.3925304412841797,-1.2295246124267578,-0.19175104796886444,16.75,0.0,2.5327205657958984,-1.2584924697875977,-0.19175104796886444,13.0,0.0,1.9197463989257812,-1.1140108108520508,0.0,25.5,0.0,2.5119781494140625,-0.7127523422241211,0.0,24.75,0.0,2.683281898498535,-0.5747079849243164,0.0,23.75,0.0,2.8738975524902344,-0.2510547637939453,0.0,19.0,,,,,,,,,,,,,,,,,,,,,,,,,
0.0,0.14340710639953613,3.0790345668792725,-0.0001709618663880974,0.5862724184989929,-0.43135666847229004,-0.00011795646423706785,-0.05021796375513077,-0.8539638519287109,5.6874465371947736e-05,0.0,3.347039222717285,-1.272439956665039,-0.19175104796886444,12.75,0.0,3.2483339309692383,-0.9838342666625977,-0.19175104796886444,17.0,0.0,3.3338069915771484,-0.8268356323242188,-0.19175104796886444,15.75,0.0,2.8438568115234375,-0.31578540802001953,-0.3835020959377289,15.25,0.0,2.8624534606933594,-0.3072023391723633,-0.3835020959377289,17.5,0.0,3.0094385147094727,0.41878223419189453,-0.19175104796886444,13.0,0.0,3.3513307571411133,-1.256704330444336,0.0,16.25,0.0,3.497958183288574,-1.365065574645996,0.0,13.75,0.0,2.924323081970215,0.240325927734375,0.0,19.5,0.0,2.978682518005371,0.25391578674316406,0.0,26.0,0.0,3.0448436737060547,0.19276142120361328,0.0,25.5,,,,,,,,,,,,,,,
0.0,0.20178326964378357,3.0316290855407715,-0.00018247314437758178,0.5812506079673767,-0.516753077507019,-0.00011226901551708579,0.0,0.0,0.0,0.0,3.1113624572753906,-1.3114213943481445,-0.3835020959377289,16.75,0.0,3.161787986755371,-1.2695789337158203,-0.3835020959377289,16.25,0.0,3.5201311111450195,-1.3947486877441406,0.0,14.25,0.0,3.4003257751464844,-1.1794567108154297,0.0,14.5,,,,,,,,,,,,,,,,,,,,,,,,,,,,,,,,,,,,,,,,,,,,,,,,,,
0.0,0.1471947431564331,2.9575319290161133,-0.00014906255819369107,0.40927374362945557,-0.5496139526367188,-6.413306982722133e-05,-0.13667313754558563,-0.031822897493839264,2.6662635718821548e-05,0.0,3.106355667114258,-1.2180805206298828,-0.7670041918754578,24.75,0.0,3.147125244140625,-1.227736473083496,-0.7670041918754578,21.25,0.0,3.076314926147461,-0.9312629699707031,-0.7670041918754578,19.75,0.0,3.3080577850341797,-1.1036396026611328,-0.19175104796886444,13.25,0.0,2.9039382934570312,-0.10371208190917969,-0.5752531439065933,18.5,0.0,2.721548080444336,-0.07402896881103516,-0.5752531439065933,13.75,0.0,2.7941465377807617,-0.05829334259033203,-0.5752531439065933,19.25,,,,,,,,,,,,,,,,,,,,,,,,,,,,,,,,,,,
0.0,0.09076669067144394,2.9179437160491943,-0.00011100852134404704,0.25391677021980286,-0.5196712613105774,-1.4323384675662965e-05,-0.24556401371955872,0.0043778568506240845,5.238190351519734e-05,0.0,3.0755996704101562,-1.3933181762695312,-0.7670041918754578,18.25,0.0,3.177523612976074,-1.576066017150879,-0.19175104796886444,13.0,0.0,3.0530691146850586,-1.0056495666503906,-0.7670041918754578,24.0,0.0,3.009796142578125,-0.6633996963500977,-0.9587552398443222,26.5,0.0,2.918243408203125,0.017523765563964844,-0.19175104796886444,26.75,0.0,2.750515937805176,0.23746490478515625,-0.5752531439065933,17.75,0.0,2.8281211853027344,0.21708011627197266,-0.19175104796886444,25.75,,,,,,,,,,,,,,,,,,,,,,,,,,,,,,,,,,,
0.0,0.03426075726747513,2.8473923206329346,-8.21063295006752e-05,0.10791114717721939,-0.5315876603126526,2.3002747184364125e-05,-0.34055817127227783,0.006438042968511581,6.996278534643352e-05,0.0,2.9675960540771484,-1.4008283615112305,-1.1505062878131866,21.75,0.0,3.0226707458496094,-1.4712810516357422,-1.1505062878131866,17.25,0.0,2.9289722442626953,-1.1444091796875,-1.1505062878131866,21.25,0.0,2.7261972427368164,-0.09262561798095703,-0.3835020959377289,25.75,0.0,2.8198957443237305,-0.22923946380615234,-0.3835020959377289,22.25,0.0,2.584218978881836,-0.051140785217285156,-0.5752531439065933,14.75,0.0,2.67183780670166,-0.0661611557006836,-0.5752531439065933,23.75,0.0,3.22723388671875,-1.1000633239746094,0.0,19.75,0.0,3.3867359161376953,-1.0707378387451172,0.0,16.25,0.0,3.560185432434082,-1.1826753616333008,0.0,12.25,0.0,3.034830093383789,-0.8246898651123047,0.0,22.25,0.0,2.7126073837280273,-0.02682209014892578,0.0,19.25,0.0,2.8002262115478516,0.07081031799316406,0.0,24.25,,,,,
0.0,-0.07053998112678528,2.7938199043273926,-6.323275010799989e-05,-0.09954743087291718,-0.5488106608390808,4.710438224719837e-05,-0.47888100147247314,-0.029421869665384293,7.93437211541459e-05,0.0,2.8810501098632812,-1.4369487762451172,-1.1505062878131866,19.5,0.0,3.020167350769043,-1.4698505401611328,-1.342257335782051,12.75,0.0,2.8377771377563477,-1.2760162353515625,-1.1505062878131866,21.5,0.0,2.843141555786133,-0.8300542831420898,-0.7670041918754578,20.25,0.0,2.671480178833008,-0.13625621795654297,-0.7670041918754578,12.75,0.0,2.8023719787597656,-0.07832050323486328,-0.7670041918754578,18.25,0.0,3.2047033309936523,-1.1665821075439453,0.0,21.0,0.0,3.369927406311035,-1.1082887649536133,0.0,17.25,0.0,3.549814224243164,-1.2127161026000977,0.0,12.5,0.0,2.697587013244629,-0.0050067901611328125,0.0,19.5,0.0,2.7773380279541016,0.047206878662109375,0.0,23.5,0.0,2.8814077377319336,-0.0057220458984375,0.0,22.5,,,,,,,,,,
0.0,-0.20216026902198792,2.6917972564697266,-4.665377127821557e-05,-0.3310903310775757,-0.6694514155387878,6.689260044367984e-05,-0.6257171630859375,-0.1841631531715393,8.589818025939167e-05,0.0,2.6149749755859375,-1.2094974517822266,-1.9175104796886444,22.25,0.0,2.6836395263671875,-1.4394521713256836,-1.9175104796886444,16.25,0.0,2.886056900024414,-1.5091896057128906,0.19175104796886444,14.25,0.0,3.0298233032226562,-1.5088319778442383,0.19175104796886444,12.5,0.0,2.6335716247558594,-0.779271125793457,-1.9175104796886444,22.75,0.0,2.599954605102539,-0.4330873489379883,-0.7670041918754578,21.25,0.0,2.508401870727539,-0.34868717193603516,-0.7670041918754578,15.5,0.0,3.4046173095703125,-0.9952783584594727,0.0,15.5,0.0,2.6886463165283203,-0.051856040954589844,0.0,20.75,0.0,2.7626752853393555,0.005364418029785156,0.0,24.0,0.0,2.8731822967529297,-0.04863739013671875,0.0,21.75,,,,,,,,,,,,,,,
0.0,-0.3800697326660156,2.585225820541382,-3.122779162367806e-05,-0.6175417900085449,-0.7516419887542725,8.437301585217938e-05,-0.8071264028549194,-0.2501404881477356,9.083913028007373e-05,0.0,2.3975372314453125,-1.2080669403076172,-0.7670041918754578,23.75,0.0,2.5320053100585938,-1.273512840270996,-1.342257335782051,18.0,0.0,2.6961565017700195,-1.386880874633789,-1.9175104796886444,12.25,0.0,2.260923385620117,-0.6837844848632812,-1.1505062878131866,19.0,0.0,2.408266067504883,-0.8153915405273438,-0.19175104796886444,25.75,0.0,2.373218536376953,-0.605463981628418,-1.1505062878131866,25.0,0.0,1.8471479415893555,-1.269221305847168,0.0,19.0,0.0,2.376437187194824,-0.5840063095092773,0.0,19.75,0.0,3.4099817276000977,-0.9856224060058594,0.0,14.75,0.0,2.8831958770751953,-0.32079219818115234,0.0,21.5,0.0,2.6160478591918945,-0.19490718841552734,0.0,22.0,0.0,2.7472972869873047,-0.06794929504394531,0.0,23.5,,,,,,,,,,
0.0,-0.7064681053161621,2.416536569595337,-1.5327506844187155e-05,-1.1003233194351196,-0.9740215539932251,0.00010040973575087264,-1.1232085227966309,-0.48728328943252563,9.462740854360163e-05,0.0,2.202630043029785,-1.2710094451904297,-0.19175104796886444,25.25,0.0,2.3467540740966797,-1.294255256652832,-0.19175104796886444,22.75,0.0,2.489805221557617,-1.3121366500854492,-1.1505062878131866,14.75,0.0,2.0481348037719727,-0.7628202438354492,-1.5340083837509155,12.25,0.0,2.1593570709228516,-0.8533000946044922,-1.5340083837509155,26.5,0.0,2.087831497192383,-0.7588863372802734,-1.5340083837509155,28.5,0.0,1.9358396530151367,-1.0396242141723633,0.0,23.5,0.0,3.0591487884521484,-1.2112855911254883,0.0,20.25,0.0,3.177523612976074,-1.1937618255615234,0.0,18.75,0.0,2.9625892639160156,-1.0807514190673828,0.0,17.75,0.0,3.403186798095703,-0.995635986328125,0.0,14.0,0.0,2.887129783630371,-0.33473968505859375,0.0,17.75,0.0,2.601742744445801,-0.19991397857666016,0.0,22.0,0.0,2.741575241088867,-0.010728836059570312,0.0,23.25
0.0,-0.08866874873638153,3.2142767906188965,-1.9482331481412984e-07,0.6354003548622131,-0.31731146574020386,1.3127514648658689e-05,0.11556874215602875,-0.9211934804916382,1.8345412172493525e-05,0.0,3.2497644424438477,-1.255631446838379,-0.3835020959377289,20.25,0.0,3.146052360534668,-0.9548664093017578,-0.3835020959377289,16.75,0.0,3.368854522705078,-1.1501312255859375,-0.3835020959377289,15.0,0.0,2.9947757720947266,0.013232231140136719,-0.19175104796886444,24.25,0.0,3.0040740966796875,-0.0025033950805664062,-0.19175104796886444,23.25,0.0,2.9457807540893555,0.10907649993896484,-0.5752531439065933,16.0,0.0,3.5494565963745117,-1.1065006256103516,0.0,16.0,0.0,3.0552148818969727,0.04363059997558594,0.0,24.5,0.0,3.094196319580078,-0.007152557373046875,0.0,27.25,0.0,3.176093101501465,0.0032186508178710938,0.0,23.0,0.0,2.9643774032592773,0.10800361633300781,0.0,14.25,,,,,,,,,,,,,,,
0.0,-0.21692505478858948,3.179189920425415,8.57823920341616e-07,0.3471177816390991,-0.4147135317325592,1.4536080925608985e-05,-0.12784065306186676,-0.9337436556816101,1.8084438124787994e-05,0.0,3.2701492309570312,-1.0378360748291016,-0.5752531439065933,20.75,0.0,3.1964778900146484,-0.9255409240722656,-0.5752531439065933,20.5,0.0,3.4171342849731445,-0.9673833847045898,-0.3835020959377289,13.75,0.0,3.1217336654663086,-0.25713443756103516,-0.5752531439065933,18.75,0.0,2.8917789459228516,0.005364418029785156,-0.5752531439065933,13.0,0.0,2.9851198196411133,0.09012222290039062,-0.5752531439065933,17.5,0.0,3.5905838012695312,-1.0106563568115234,0.0,15.75,0.0,3.04412841796875,0.07474422454833984,0.0,25.0,0.0,3.0927658081054688,-0.0171661376953125,0.0,27.5,,,,,,,,,,,,,,,,,,,,,,,,,
0.0,-0.21287159621715546,3.101900815963745,1.7288468825427117e-06,0.28609105944633484,-0.5598326921463013,1.5559297025902197e-05,-0.1670347899198532,-0.9852322936058044,1.761544081091415e-05,0.0,3.1299591064453125,-0.9537935256958008,-0.5752531439065933,19.5,0.0,3.2862424850463867,-0.8754730224609375,-0.5752531439065933,15.0,0.0,3.000497817993164,-0.6018877029418945,-0.3835020959377289,19.25,0.0,2.872467041015625,0.03361701965332031,-0.7670041918754578,23.75,0.0,2.830624580383301,0.16808509826660156,-0.7670041918754578,23.25,0.0,2.750873565673828,0.2810955047607422,-0.7670041918754578,14.75,0.0,3.45611572265625,1.2094974517822266,-0.3835020959377289,12.0,0.0,3.584146499633789,-1.016378402709961,0.0,15.75,0.0,3.188967704772949,-0.23066997528076172,0.0,24.0,0.0,3.020167350769043,0.011086463928222656,0.0,25.5,0.0,3.0916929244995117,-0.06330013275146484,0.0,27.75,0.0,2.910017967224121,0.11301040649414062,0.0,19.25,,,,,,,,,,
0.0,-0.31218206882476807,3.0347352027893066,2.466855676175328e-06,0.06849256157875061,-0.6747283339500427,1.625887853151653e-05,-0.33224067091941833,-1.0077323913574219,1.6976629922282882e-05,0.0,3.187894821166992,-1.589655876159668,-0.7670041918754578,17.5,0.0,3.028392791748047,-0.7857084274291992,-0.7670041918754578,26.5,0.0,3.1353235244750977,-0.8404254913330078,-0.7670041918754578,26.0,0.0,3.2465457916259766,-0.9276866912841797,-0.7670041918754578,20.25,0.0,2.921462059020996,-0.5986690521240234,-0.7670041918754578,24.75,0.0,2.822399139404297,-0.24890899658203125,-0.7670041918754578,21.75,0.0,2.7115345001220703,0.18346309661865234,-0.7670041918754578,16.25,0.0,3.575921058654785,-1.0460615158081055,0.0,15.5,0.0,3.074169158935547,-0.17702579498291016,0.0,26.75,0.0,2.8717517852783203,-0.00858306884765625,0.0,22.5,0.0,2.971172332763672,-0.0711679458618164,0.0,26.25,0.0,2.751588821411133,0.1323223114013672,0.0,14.25,,,,,,,,,,
0.0,-0.38460904359817505,2.93735671043396,3.1856613986747107e-06,-0.08887883275747299,-0.8337199687957764,1.6778411008999683e-05,-0.4340745806694031,-1.081819772720337,1.62589149113046e-05,0.0,2.936840057373047,-1.6461610794067383,-1.1505062878131866,15.25,0.0,2.910733222961426,-1.1093616485595703,-1.1505062878131866,23.75,0.0,2.980470657348633,-1.2191534042358398,-1.1505062878131866,21.25,0.0,2.855658531188965,-0.6963014602661133,-0.9587552398443222,22.0,0.0,2.7419328689575195,-0.10085105895996094,-0.9587552398443222,23.5,0.0,2.6782751083374023,0.008940696716308594,-0.9587552398443222,21.75,0.0,3.5709142684936523,-1.1161565780639648,0.0,15.75,0.0,3.1728744506835938,-0.6240606307983398,0.0,23.0,0.0,3.074169158935547,-0.25177001953125,0.0,27.0,0.0,2.950429916381836,-0.08082389831542969,0.0,26.5,,,,,,,,,,,,,,,,,,,,
0.0,-0.4905046820640564,2.8010973930358887,3.5076641324849334e-06,-0.2824257016181946,-1.0617406368255615,1.6667447198415175e-05,-0.5540786385536194,-1.2393345832824707,1.5185110896709375e-05,0.0,2.9718875885009766,-1.5628337860107422,0.19175104796886444,14.0,0.0,2.910733222961426,-1.256704330444336,0.19175104796886444,19.25,0.0,2.7773380279541016,-0.9230375289916992,-0.5752531439065933,27.75,0.0,2.8638839721679688,-1.055002212524414,-1.5340083837509155,25.75,0.0,2.6689767837524414,-0.5375146865844727,-2.3010125756263733,27.75,0.0,2.5370121002197266,-0.31578540802001953,-2.3010125756263733,23.5,0.0,2.579927444458008,-0.3629922866821289,-2.3010125756263733,29.0,0.0,3.2815933227539062,-1.9336938858032227,0.0,13.25,0.0,3.038763999938965,-0.5167722702026367,0.0,27.25,0.0,2.9239654541015625,-0.34618377685546875,0.0,27.5,,,,,,,,,,,,,,,,,,,,
0.0,-0.6666548252105713,2.6261990070343018,3.5577309063228313e-06,-0.5765722393989563,-1.3173223733901978,1.6125934052979574e-05,-0.7515487670898438,-1.3951727151870728,1.3905594641983043e-05,0.0,2.689361572265625,-1.4394521713256836,-0.7670041918754578,18.25,0.0,2.8324127197265625,-1.4576911926269531,0.19175104796886444,13.75,0.0,2.1686553955078125,-0.8440017700195312,-2.109261527657509,27.0,0.0,2.673625946044922,-1.2009143829345703,-0.7670041918754578,17.75,0.0,2.251267433166504,-0.7674694061279297,-2.109261527657509,30.0,0.0,2.3828744888305664,-0.6544589996337891,-2.109261527657509,27.0,0.0,2.6117563247680664,-0.5400180816650391,-1.342257335782051,21.75,0.0,3.023386001586914,-0.5822181701660156,0.0,22.25,0.0,2.9050111770629883,-0.39196014404296875,0.0,27.0,,,,,,,,,,,,,,,,,,,,,,,,,
0.0,-0.9355025887489319,2.431547164916992,3.4956694889842765e-06,-1.0146682262420654,-1.5524897575378418,1.5375841030618176e-05,-1.0684140920639038,-1.4880530834197998,1.2569306818477344e-05,0.0,1.842498779296875,-1.1229515075683594,-0.7670041918754578,13.25,0.0,2.5184154510498047,-1.3997554779052734,-0.5752531439065933,18.75,0.0,2.6078224182128906,-1.5377998352050781,-0.5752531439065933,15.5,0.0,2.7827024459838867,-1.6222000122070312,0.19175104796886444,12.5,0.0,1.9505023956298828,-1.0489225387573242,-0.7670041918754578,31.25,0.0,2.0477771759033203,-1.0228157043457031,-0.7670041918754578,28.75,0.0,2.2569894790649414,-1.0417699813842773,-2.8762657195329666,22.5,0.0,2.4121999740600586,-1.3028383255004883,-2.4927636235952377,18.5,0.0,3.2318830490112305,-1.4791488647460938,0.0,13.25,0.0,2.95865535736084,-0.8575916290283203,0.0,21.5,,,,,,,,,,,,,,,,,,,,
0.0,-0.59538733959198,3.158884286880493,8.849048072079313e-08,-0.3879009485244751,-0.5017468929290771,1.4749768695310195e-07,-0.07739792764186859,-0.476559042930603,1.8975645943442032e-08,0.0,3.2340288162231445,-1.8106698989868164,-0.5752531439065933,15.75,0.0,3.2526254653930664,-1.6207695007324219,-0.5752531439065933,20.5,0.0,3.1267404556274414,-1.2999773025512695,-0.7670041918754578,15.0,0.0,3.2579898834228516,-1.4026165008544922,-0.5752531439065933,19.25,0.0,2.9726028442382812,-0.01609325408935547,-0.5752531439065933,16.75,0.0,3.0194520950317383,0.0400543212890625,-0.5752531439065933,15.5,0.0,3.4682750701904297,-1.3443231582641602,0.0,16.75,0.0,3.339529037475586,-1.018524169921875,0.0,25.0,0.0,3.416776657104492,-1.1487007141113281,0.0,22.75,0.0,3.1507015228271484,-0.017881393432617188,0.0,26.0,0.0,2.918243408203125,0.1480579376220703,0.0,15.0,0.0,3.0444860458374023,0.1062154769897461,0.0,21.75,,,,,,,,,,
0.0,-0.625785231590271,3.122614860534668,7.465900608849552e-08,-0.375826895236969,-0.5453276634216309,1.1301763436222245e-07,-0.05561373382806778,-0.4966152012348175,-3.521243741033686e-09,0.0,3.3659934997558594,-1.5892982482910156,-0.7670041918754578,15.25,0.0,3.327012062072754,-1.3786554336547852,-0.5752531439065933,20.0,0.0,3.3162832260131836,-1.145482063293457,-0.5752531439065933,21.25,0.0,3.2547712326049805,-0.6455183029174805,-0.5752531439065933,19.5,0.0,2.9075145721435547,-0.02574920654296875,-0.5752531439065933,17.75,0.0,2.948284149169922,-0.04863739013671875,-0.5752531439065933,23.0,0.0,3.0444860458374023,-0.055789947509765625,-0.7670041918754578,19.75,0.0,3.3288002014160156,-1.0567903518676758,0.0,26.25,0.0,3.409266471862793,-1.0986328125,0.0,22.0,0.0,3.483295440673828,-1.2667179107666016,0.0,16.0,0.0,3.2608509063720703,-0.2796649932861328,0.0,26.0,,,,,,,,,,,,,,,
0.0,-0.6343039870262146,3.0670437812805176,6.040968969500682e-08,-0.322576105594635,-0.6227971911430359,8.001465801044105e-08,0.003083251416683197,-0.5564616322517395,-2.3866686404971915e-08,0.0,3.254055976867676,-1.5510320663452148,-0.9587552398443222,18.5,0.0,3.3484697341918945,-1.6794204711914062,-0.9587552398443222,14.75,0.0,3.0916929244995117,-1.1848211288452148,-0.9587552398443222,20.0,0.0,3.177165985107422,-1.3968944549560547,-0.9587552398443222,18.25,0.0,3.0870437622070312,-0.3204345703125,-0.3835020959377289,20.75,0.0,2.9164552688598633,0.07617473602294922,-0.3835020959377289,19.75,0.0,2.706170082092285,0.1741647720336914,-0.7670041918754578,17.5,0.0,2.761960029602051,0.20420551300048828,-0.7670041918754578,21.5,0.0,3.2379627227783203,-1.2710094451904297,0.0,25.25,0.0,3.3402442932128906,-1.2960433959960938,0.0,21.5,0.0,3.4607648849487305,-1.3747215270996094,0.0,16.0,0.0,3.238677978515625,-0.41162967681884766,0.0,25.75,,,,,,,,,,
0.0,-0.6828171014785767,2.963749408721924,4.855598945141537e-08,-0.33625558018684387,-0.7881659865379333,5.2033904296422406e-08,0.0064796507358551025,-0.7106301188468933,-4.00518942456074e-08,0.0,2.6847124099731445,-1.4412403106689453,-1.1505062878131866,17.0,0.0,2.980470657348633,-1.3571977615356445,-1.1505062878131866,23.0,0.0,3.070235252380371,-1.416921615600586,-1.1505062878131866,19.5,0.0,2.9218196868896484,-1.2738704681396484,-1.1505062878131866,23.0,0.0,3.2633543014526367,-1.4033317565917969,-0.5752531439065933,13.5,0.0,2.590656280517578,0.10836124420166016,-0.9587552398443222,13.5,0.0,2.66110897064209,0.09691715240478516,-0.9587552398443222,23.5,0.0,2.6646852493286133,0.1494884490966797,-0.9587552398443222,24.25,0.0,2.8020143508911133,0.4044771194458008,-0.9587552398443222,16.0,0.0,3.22115421295166,-1.3157129287719727,0.0,23.0,0.0,3.3370256423950195,-1.289963722229004,0.0,21.25,0.0,3.5222768783569336,-1.2055635452270508,0.0,15.25,,,,,,,,,,
0.0,-0.6693955659866333,2.8543903827667236,4.1128508598831104e-08,-0.2415129840373993,-0.9334224462509155,3.1728806249020636e-08,0.10046156495809555,-0.8177226781845093,-5.046335616043507e-08,0.0,2.807736396789551,-1.1032819747924805,-1.342257335782051,23.5,0.0,2.901434898376465,-1.109004020690918,-1.342257335782051,26.75,0.0,2.954721450805664,-1.1175870895385742,-1.342257335782051,19.0,0.0,2.67183780670166,-0.1291036605834961,-1.342257335782051,22.5,0.0,2.5538206100463867,-0.013589859008789062,-0.7670041918754578,19.25,0.0,2.594590187072754,-0.06473064422607422,-0.9587552398443222,24.75,0.0,3.240823745727539,-1.2634992599487305,0.0,20.5,0.0,3.3316612243652344,-1.2731552124023438,0.0,20.25,,,,,,,,,,,,,,,,,,,,,,,,,,,,,,
0.0,-0.7975313663482666,2.7384979724884033,3.1943216072249925e-08,-0.41269031167030334,-1.0596059560775757,1.067470556392891e-08,-0.053611524403095245,-0.8678279519081116,-6.068660240998724e-08,0.0,2.911090850830078,-1.4040470123291016,0.19175104796886444,19.75,0.0,3.0705928802490234,-1.395106315612793,-0.19175104796886444,15.75,0.0,2.570986747741699,-1.0528564453125,-1.1505062878131866,25.25,0.0,2.6543140411376953,-1.1876821517944336,-1.5340083837509155,25.5,0.0,2.813100814819336,-1.221299171447754,-1.342257335782051,21.25,0.0,2.534151077270508,-0.6165504455566406,-1.1505062878131866,23.25,0.0,2.463698387145996,-0.44596195220947266,-1.1505062878131866,20.5,,,,,,,,,,,,,,,,,,,,,,,,,,,,,,,,,,,
0.0,-0.9422472715377808,2.583477735519409,2.3657410253008493e-08,-0.5981196165084839,-1.2305850982666016,-7.513847322115907e-09,-0.2070341408252716,-0.952345073223114,-6.851351486147905e-08,0.0,2.5169849395751953,-1.3661384582519531,-0.9587552398443222,20.5,0.0,2.663254737854004,-1.453399658203125,-0.9587552398443222,16.5,0.0,2.833843231201172,-1.5338659286499023,-0.3835020959377289,14.0,0.0,2.4193525314331055,-1.2409687042236328,-0.9587552398443222,24.75,0.0,2.28273868560791,-0.8647441864013672,-1.1505062878131866,24.25,0.0,2.373933792114258,-0.9824037551879883,-1.1505062878131866,25.0,0.0,2.212643623352051,-0.7646083831787109,-1.1505062878131866,19.75,,,,,,,,,,,,,,,,,,,,,,,,,,,,,,,,,,,
0.0,-1.0617340803146362,2.4089908599853516,1.7631496262993096e-08,-0.7227341532707214,-1.4073842763900757,-2.105370455751654e-08,-0.2962659001350403,-1.0308870077133179,-7.28836653252074e-08,0.0,2.3685693740844727,-1.5435218811035156,-0.7670041918754578,14.25,0.0,2.2058486938476562,-1.198410987854004,-1.1505062878131866,26.25,0.0,2.271294593811035,-1.3768672943115234,-0.9587552398443222,20.25,0.0,2.1207332611083984,-1.087188720703125,0.19175104796886444,27.0,0.0,2.0542144775390625,-0.9205341339111328,-2.3010125756263733,25.5,0.0,3.2258033752441406,-1.2499094009399414,0.0,19.0,0.0,3.3098459243774414,-1.336812973022461,0.0,18.0,,,,,,,,,,,,,,,,,,,,,,,,,,,,,,,,,,,
0.0,-1.1888047456741333,2.2145960330963135,1.112916780954265e-08,-0.8542152643203735,-1.586856722831726,-3.385918034837232e-08,-0.3906573951244354,-1.0945056676864624,-7.65052732276672e-08,0.0,2.110719680786133,-1.351475715637207,-0.7670041918754578,19.75,0.0,2.210855484008789,-1.4630556106567383,-1.342257335782051,12.5,0.0,1.910090446472168,-1.0585784912109375,-0.7670041918754578,22.75,0.0,1.9873380661010742,-1.2334585189819336,-0.7670041918754578,20.75,0.0,2.109646797180176,-1.3507604598999023,-0.7670041918754578,19.5,0.0,1.8585920333862305,-0.9927749633789062,-0.7670041918754578,13.5,0.0,3.208279609680176,-1.2720823287963867,0.0,19.0,0.0,3.313422203063965,-1.2631416320800781,0.0,16.75,0.0,2.849578857421875,-0.6015300750732422,0.0,17.75,,,,,,,,,,,,,,,,,,,,,,,,,
0.0,-1.2766413688659668,2.055903196334839,6.1720930588649026e-09,-0.9060804843902588,-1.6743067502975464,-4.316148505267847e-08,-0.41353535652160645,-1.058977723121643,-7.75820723220022e-08,0.0,1.7895698547363281,-1.3021230697631836,-0.7670041918754578,19.0,0.0,2.083897590637207,-1.1540651321411133,-0.5752531439065933,19.5,0.0,2.238750457763672,-1.1093616485595703,-0.19175104796886444,18.75,0.0,3.093838691711426,-1.4491081237792969,0.0,15.5,,,,,,,,,,,,,,,,,,,,,,,,,,,,,,,,,,,,,,,,,,,,,,,,,,
0.0,-1.2620493173599243,2.9754960536956787,-5.888070031545567e-10,-1.15675950050354,-0.5263525247573853,-1.1551009038157645e-09,-0.5703072547912598,-0.413108229637146,-4.5085227218244484e-10,0.0,3.165006637573242,-1.5070438385009766,-0.19175104796886444,15.0,0.0,3.1321048736572266,-1.2116432189941406,-0.3835020959377289,22.0,0.0,3.1238794326782227,-1.3647079467773438,-0.19175104796886444,20.75,0.0,3.1038522720336914,-0.5865097045898438,-0.3835020959377289,16.5,0.0,2.71761417388916,0.2313852310180664,-0.3835020959377289,16.5,0.0,2.765178680419922,0.24819374084472656,-0.3835020959377289,21.5,0.0,2.8388500213623047,0.2557039260864258,-0.3835020959377289,19.5,0.0,3.389596939086914,-1.3314485549926758,0.0,18.25,0.0,3.521561622619629,-1.3407468795776367,0.0,16.5,0.0,2.9021501541137695,0.04363059997558594,0.0,23.0,0.0,2.741575241088867,0.13554096221923828,0.0,15.5,0.0,2.825617790222168,0.09691715240478516,0.0,22.25,,,,,,,,,,
0.0,-1.2817213535308838,2.936875343322754,-5.986460216433898e-10,-1.0344651937484741,-0.5581187009811401,-1.0631486802026302e-09,-0.4102199673652649,-0.4297446310520172,-3.665340531089356e-10,0.0,2.9915571212768555,-1.6154050827026367,-0.3835020959377289,14.5,0.0,2.9965639114379883,-0.7152557373046875,-0.5752531439065933,22.75,0.0,3.0688047409057617,-0.8314847946166992,-0.5752531439065933,17.5,0.0,2.947568893432617,-0.050067901611328125,-0.3835020959377289,21.25,0.0,2.8302669525146484,0.3064870834350586,-0.3835020959377289,19.0,0.0,3.3173561096191406,-1.4551877975463867,0.0,17.25,0.0,3.465414047241211,-1.4684200286865234,0.0,15.25,0.0,2.9239654541015625,0.03826618194580078,0.0,23.75,0.0,2.7430057525634766,0.12159347534179688,0.0,15.75,0.0,2.832770347595215,0.10585784912109375,0.0,22.5,,,,,,,,,,,,,,,,,,,,
0.0,-1.2441989183425903,2.9082729816436768,-5.565901073367741e-10,-0.8290349841117859,-0.5672906041145325,-9.121935429234895e-10,-0.19852381944656372,-0.42547476291656494,-2.527229536752884e-10,0.0,2.960801124572754,-1.1376142501831055,-0.5752531439065933,21.25,0.0,3.119945526123047,-1.270294189453125,-0.5752531439065933,13.5,0.0,2.9404163360595703,-0.9101629257202148,-0.5752531439065933,26.0,0.0,2.9296875,-0.5707740783691406,-0.3835020959377289,24.5,0.0,2.724766731262207,-0.21386146545410156,-0.3835020959377289,14.75,0.0,2.834916114807129,-0.23996829986572266,-0.3835020959377289,20.5,0.0,3.3005475997924805,-1.5034675598144531,0.0,18.5,0.0,3.4221410751342773,-1.5610456466674805,0.0,16.5,0.0,2.7408599853515625,0.03826618194580078,0.0,16.5,0.0,2.8259754180908203,0.00858306884765625,0.0,22.75,0.0,2.924680709838867,-0.022530555725097656,0.0,23.75,,,,,,,,,,,,,,,
0.0,-1.2747838497161865,2.862276077270508,-5.358319343784501e-10,-0.7438318729400635,-0.6187912225723267,-7.968420923099018e-10,-0.09531502425670624,-0.46821698546409607,-1.6766160682024633e-10,0.0,3.0448436737060547,-1.2570619583129883,-0.7670041918754578,20.5,0.0,3.079533576965332,-1.3750791549682617,-0.7670041918754578,16.75,0.0,2.9937028884887695,-1.0002851486206055,-0.7670041918754578,19.25,0.0,2.660393714904785,-0.2875328063964844,-0.3835020959377289,21.25,0.0,2.8427839279174805,-0.3376007080078125,-0.3835020959377289,18.75,0.0,2.7097463607788086,-0.25784969329833984,-0.3835020959377289,22.75,0.0,2.7791261672973633,-0.19848346710205078,0.0,25.5,0.0,2.904653549194336,-0.19991397857666016,0.0,24.75,,,,,,,,,,,,,,,,,,,,,,,,,,,,,,
0.0,-1.1799370050430298,2.7922487258911133,-4.400203534871139e-10,-0.44800764322280884,-0.7196119427680969,-5.973555539107167e-10,0.18575643002986908,-0.5800634622573853,-3.766979783659252e-11,0.0,2.79843807220459,-1.3872385025024414,-1.5340083837509155,20.5,0.0,2.847433090209961,-1.497030258178711,-1.5340083837509155,17.75,0.0,2.8291940689086914,-0.8804798126220703,-0.7670041918754578,18.75,0.0,2.587437629699707,-0.5142688751220703,-0.5752531439065933,16.25,0.0,2.741217613220215,-0.38874149322509766,-0.7670041918754578,17.75,0.0,2.795577049255371,-0.09763240814208984,0.0,25.25,,,,,,,,,,,,,,,,,,,,,,,,,,,,,,,,,,,,,,,,
0.0,-1.1479138135910034,2.639702081680298,-3.539453452550134e-10,-0.2634315490722656,-0.9635406732559204,-4.225452487904846e-10,0.36753785610198975,-0.8220837116241455,6.998315815742728e-11,0.0,2.502322196960449,-1.1458396911621094,-1.9175104796886444,23.0,0.0,2.555251121520996,-1.2949705123901367,-1.9175104796886444,21.75,0.0,2.7244091033935547,-1.2917518615722656,-1.5340083837509155,16.25,0.0,2.4744272232055664,-0.8819103240966797,-0.9587552398443222,21.25,0.0,2.451181411743164,-0.5929470062255859,-0.9587552398443222,16.75,0.0,3.192901611328125,-1.592874526977539,0.0,14.25,0.0,2.7676820755004883,-0.22351741790771484,0.0,25.25,,,,,,,,,,,,,,,,,,,,,,,,,,,,,,,,,,,
0.0,-1.1562448740005493,2.469581127166748,-2.7870500352022987e-10,-0.1812446415424347,-1.1752222776412964,-2.741660509730792e-10,0.4258984923362732,-0.9633431434631348,1.5425172250616015e-10,0.0,2.04312801361084,-1.1097192764282227,-0.9587552398443222,21.5,0.0,2.3092031478881836,-1.3328790664672852,-1.342257335782051,26.5,0.0,2.379298210144043,-1.465916633605957,-1.9175104796886444,17.25,0.0,2.3413896560668945,-1.015305519104004,-1.342257335782051,28.5,0.0,2.3488998413085938,-0.7259845733642578,-0.9587552398443222,27.0,0.0,3.052353858947754,-1.4508962631225586,0.0,17.0,0.0,2.7365684509277344,-0.2689361572265625,0.0,26.0,,,,,,,,,,,,,,,,,,,,,,,,,,,,,,,,,,,
0.0,-1.1674489974975586,2.3440165519714355,-2.2966169244131862e-10,-0.15698879957199097,-1.2341415882110596,-1.686384781818262e-10,0.38521504402160645,-0.8874588012695312,2.0701106107079426e-10,0.0,2.302408218383789,-1.319289207458496,-0.19175104796886444,17.25,0.0,2.2194385528564453,-1.1905431747436523,-0.19175104796886444,21.75,0.0,2.0341873168945312,-0.8819103240966797,-1.5340083837509155,24.75,0.0,2.1611452102661133,-0.8901357650756836,-0.19175104796886444,23.25,0.0,2.7440786361694336,-0.2428293228149414,0.0,25.75,,,,,,,,,,,,,,,,,,,,,,,,,,,,,,,,,,,,,,,,,,,,,
0.0,-1.1692399978637695,2.1765670776367188,-1.699009682942787e-10,-0.0962686836719513,-1.3811240196228027,-5.664207297639834e-11,0.40772420167922974,-0.9394997954368591,2.61811738955231e-10,0.0,2.015233039855957,-1.1447668075561523,-0.7670041918754578,24.5,0.0,2.104640007019043,-1.3235807418823242,-2.109261527657509,21.75,0.0,2.233743667602539,-1.427292823791504,-2.109261527657509,12.75,0.0,1.948714256286621,-0.9455680847167969,-0.7670041918754578,27.25,0.0,1.913309097290039,-0.8518695831298828,-0.7670041918754578,18.75,0.0,2.4933815002441406,-0.6197690963745117,0.0,25.0,0.0,2.725839614868164,-0.3190040588378906,0.0,22.0,,,,,,,,,,,,,,,,,,,,,,,,,,,,,,,,,,,
0.0,-0.279644250869751,2.8088552951812744,2.85450780851057e-13,-0.29333916306495667,-0.5198578834533691,2.2115063957623554e-13,-0.20032474398612976,-0.43476784229278564,-5.428368800471095e-13,0.0,2.7533769607543945,-1.8178224563598633,-1.1505062878131866,14.5,0.0,3.0781030654907227,-1.5681982040405273,-1.1505062878131866,16.5,0.0,2.827763557434082,-0.9180307388305664,-0.9587552398443222,20.25,0.0,2.7691125869750977,-0.4863739013671875,-0.5752531439065933,26.75,0.0,2.7093887329101562,-0.1366138458251953,-0.5752531439065933,31.0,0.0,2.6067495346069336,-0.03039836883544922,-0.5752531439065933,18.5,0.0,2.6786327362060547,-0.06330013275146484,-0.5752531439065933,29.25,0.0,3.2401084899902344,-1.2731552124023438,0.0,19.75,0.0,3.299832344055176,-1.3729333877563477,0.0,18.75,0.0,3.407120704650879,-1.4709234237670898,0.0,13.75,0.0,2.979755401611328,-0.4305839538574219,0.0,25.5,,,,,,,,,,,,,,,
0.0,-0.4255983829498291,2.7480077743530273,2.295222388884466e-13,-0.50838702917099,-0.5797040462493896,7.199401936153899e-14,-0.36343279480934143,-0.4539107382297516,-6.014560052260143e-13,0.0,2.96938419342041,-1.6204118728637695,-0.9587552398443222,13.0,0.0,2.8481483459472656,-1.4358758926391602,-0.19175104796886444,17.0,0.0,2.7827024459838867,-1.214146614074707,-0.9587552398443222,21.75,0.0,2.7408599853515625,-0.9655952453613281,-0.3835020959377289,25.75,0.0,2.704739570617676,-0.573277473449707,-0.3835020959377289,26.25,0.0,2.5420188903808594,-0.30112266540527344,-0.5752531439065933,16.25,0.0,2.6432275772094727,-0.3490447998046875,-0.3835020959377289,23.75,,,,,,,,,,,,,,,,,,,,,,,,,,,,,,,,,,,
0.0,-0.5654183626174927,2.660083532333374,1.6083033342606523e-13,-0.6797674894332886,-0.7168853878974915,-8.131491221466045e-14,-0.4655982553958893,-0.5889381766319275,-6.600140356124995e-13,0.0,2.86102294921875,-1.3021230697631836,-1.1505062878131866,15.0,0.0,2.665400505065918,-1.0582208633422852,-1.1505062878131866,27.75,0.0,2.730131149291992,-1.2220144271850586,-1.1505062878131866,21.0,0.0,2.6235580444335938,-0.7964372634887695,0.19175104796886444,30.0,0.0,2.578139305114746,-0.5228519439697266,-0.9587552398443222,29.25,0.0,2.512693405151367,-0.3050565719604492,-0.9587552398443222,23.5,0.0,2.384305000305176,-0.07402896881103516,-0.9587552398443222,14.5,0.0,3.22115421295166,-1.5170574188232422,0.0,15.0,,,,,,,,,,,,,,,,,,,,,,,,,,,,,,
0.0,-0.7868006825447083,2.5533101558685303,1.0250227587289135e-13,-0.9650988578796387,-0.8939142823219299,-2.0807344020511154e-13,-0.6493727564811707,-0.7667651772499084,-6.98890164491095e-13,0.0,1.9848346710205078,-1.0868310928344727,-1.5340083837509155,23.75,0.0,2.665400505065918,-1.438736915588379,-0.9587552398443222,21.0,0.0,2.842068672180176,-1.5288591384887695,0.3835020959377289,20.0,0.0,2.971529960632324,-1.556396484375,0.3835020959377289,16.5,0.0,2.589583396911621,-1.0135173797607422,-0.7670041918754578,30.5,0.0,2.63214111328125,-1.1190176010131836,-0.7670041918754578,25.0,0.0,2.498030662536621,-0.8236169815063477,-1.5340083837509155,28.0,0.0,2.3664236068725586,-0.5761384963989258,-1.5340083837509155,26.75,0.0,3.317713737487793,-1.2845993041992188,0.0,14.0,,,,,,,,,,,,,,,,,,,,,,,,,
0.0,-1.0725804567337036,2.4550037384033203,5.3822025232897613e-14,-1.3888918161392212,-0.9630337953567505,-3.110848438656749e-13,-0.9841004610061646,-0.7299919128417969,-7.203231067176574e-13,0.0,2.651095390319824,-1.8543004989624023,-0.9587552398443222,15.75,0.0,2.7437210083007812,-1.9837617874145508,-0.19175104796886444,14.0,0.0,1.9365549087524414,-1.1833906173706055,-0.19175104796886444,23.25,0.0,2.6836395263671875,-1.463770866394043,0.7670041918754578,18.0,0.0,2.07674503326416,-1.1168718338012695,-0.7670041918754578,24.75,0.0,2.2373199462890625,-1.157999038696289,-0.9587552398443222,20.75,0.0,2.5277137756347656,-1.1612176895141602,0.7670041918754578,19.0,0.0,2.6679039001464844,-1.216292381286621,0.7670041918754578,19.5,0.0,3.3338069915771484,-1.2810230255126953,0.0,14.75,,,,,,,,,,,,,,,,,,,,,,,,,
0.0,-1.2216136455535889,2.349337100982666,1.456648488623851e-14,-1.503075122833252,-1.0398225784301758,-3.8943620463832707e-13,-1.0029367208480835,-0.7272095680236816,-7.244725110620853e-13,0.0,2.307772636413574,-1.35040283203125,-1.1505062878131866,14.0,0.0,2.822756767272949,-1.6547441482543945,0.19175104796886444,12.5,0.0,2.0138025283813477,-1.0453462600708008,-0.19175104796886444,23.25,0.0,2.148270606994629,-1.016378402709961,0.9587552398443222,24.75,0.0,2.1997690200805664,-1.1512041091918945,-1.1505062878131866,22.25,0.0,2.749800682067871,-1.421213150024414,0.19175104796886444,13.25,0.0,3.2640695571899414,-1.374363899230957,0.0,12.5,,,,,,,,,,,,,,,,,,,,,,,,,,,,,,,,,,,
0.0,-1.3170204162597656,2.2445318698883057,-1.8867943503159817e-14,-1.4681823253631592,-1.1184366941452026,-4.4860512873889924e-13,-0.8613231182098389,-0.7527264356613159,-7.15489733432717e-13,0.0,1.7817020416259766,-1.0485649108886719,-0.19175104796886444,12.75,0.0,1.8382072448730469,-1.1733770370483398,-0.19175104796886444,26.25,0.0,2.0685195922851562,-1.1494159698486328,-0.19175104796886444,26.0,0.0,2.3581981658935547,-1.2896060943603516,-1.342257335782051,15.25,0.0,2.693653106689453,-1.4677047729492188,-0.5752531439065933,15.5,0.0,2.8270483016967773,-1.5950202941894531,-0.19175104796886444,13.5,0.0,2.226591110229492,-1.1601448059082031,-0.3835020959377289,23.75,0.0,2.591729164123535,-1.319289207458496,-0.5752531439065933,16.0,0.0,1.7927885055541992,-1.3053417205810547,0.0,29.25,0.0,2.2215843200683594,-0.9191036224365234,0.0,28.5,0.0,3.2644271850585938,-1.372218132019043,0.0,12.5,,,,,,,,,,,,,,,
0.0,-1.402206540107727,2.1487419605255127,-5.3301943615151684e-14,-1.413546085357666,-1.160765528678894,-4.999442158003242e-13,-0.7193026542663574,-0.7312318682670593,-7.017425377765785e-13,0.0,2.348184585571289,-1.6003847122192383,-0.9587552398443222,12.5,0.0,1.9948482513427734,-1.157999038696289,-0.19175104796886444,17.0,0.0,2.132534980773926,-1.178741455078125,-0.19175104796886444,21.25,0.0,2.3245811462402344,-1.2981891632080078,-0.7670041918754578,17.5,0.0,2.2612810134887695,-1.1529922485351562,-0.3835020959377289,21.5,0.0,2.2526979446411133,-0.8586645126342773,0.0,28.75,,,,,,,,,,,,,,,,,,,,,,,,,,,,,,,,,,,,,,,,
0.0,-0.36066555976867676,3.2270591259002686,-1.5797452457494768e-14,-0.5904814004898071,-0.38662540912628174,-3.049944059243734e-14,-0.6272088289260864,-0.010686034336686134,-8.802106348751882e-15,0.0,3.3420324325561523,-0.8293390274047852,-0.3835020959377289,21.0,0.0,3.287672996520996,-0.6390810012817383,-0.3835020959377289,18.5,0.0,3.46219539642334,-0.7059574127197266,-0.3835020959377289,14.5,0.0,3.1145811080932617,0.11980533599853516,-0.19175104796886444,16.75,0.0,2.992987632751465,0.40090084075927734,-0.7670041918754578,15.75,,,,,,,,,,,,,,,,,,,,,,,,,,,,,,,,,,,,,,,,,,,,,
0.0,-0.45705676078796387,3.188581943511963,-1.4642755120941077e-14,-0.7084272503852844,-0.40763264894485474,-2.6232381677569923e-14,-0.6708223223686218,-0.04672679305076599,-5.718874233494233e-15,0.0,3.3745765686035156,-1.0932683944702148,-0.19175104796886444,16.0,0.0,3.2411813735961914,-0.8994340896606445,-0.19175104796886444,19.5,0.0,3.325223922729492,-0.9351968765258789,-0.5752531439065933,21.25,0.0,2.9708147048950195,0.06008148193359375,-0.5752531439065933,18.0,0.0,3.0870437622070312,-0.051140785217285156,-0.5752531439065933,16.25,,,,,,,,,,,,,,,,,,,,,,,,,,,,,,,,,,,,,,,,,,,,,
0.0,-0.4510824680328369,3.141915798187256,-1.3978289961072074e-14,-0.6376545429229736,-0.410124808549881,-2.274535032163131e-14,-0.5562575459480286,-0.03789648413658142,-3.293684227266558e-15,0.0,3.0165910720825195,-1.923680305480957,-0.3835020959377289,14.75,0.0,3.125309944152832,-0.9834766387939453,-0.5752531439065933,18.25,0.0,3.06093692779541,0.009655952453613281,-0.19175104796886444,17.75,0.0,2.894282341003418,0.1233816146850586,-0.19175104796886444,14.5,0.0,2.957940101623535,0.15664100646972656,-0.19175104796886444,19.25,0.0,3.1632184982299805,0.07045269012451172,0.0,25.75,0.0,3.072381019592285,0.22494792938232422,0.0,21.0,,,,,,,,,,,,,,,,,,,,,,,,,,,,,,,,,,,
0.0,-0.44767844676971436,3.067511796951294,-1.1721234300808483e-14,-0.5630382299423218,-0.4966096580028534,-1.7384641428784715e-14,-0.44002094864845276,-0.14841780066490173,1.5916977276681822e-16,0.0,3.200054168701172,-1.2423992156982422,-0.7670041918754578,15.75,0.0,3.1299591064453125,-1.1301040649414062,-0.5752531439065933,17.0,0.0,3.0623674392700195,-0.5385875701904297,-0.9587552398443222,14.25,0.0,2.7376413345336914,0.11014938354492188,-0.5752531439065933,14.25,0.0,2.7837753295898438,0.148773193359375,-0.5752531439065933,20.25,0.0,2.841353416442871,0.19562244415283203,-0.5752531439065933,18.5,0.0,2.8356313705444336,0.0286102294921875,0.0,19.25,0.0,3.1496286392211914,0.04684925079345703,0.0,25.5,0.0,3.0019283294677734,0.12195110321044922,0.0,21.75,,,,,,,,,,,,,,,,,,,,,,,,,
0.0,-0.5545855760574341,2.9996166229248047,-9.79555741126856e-15,-0.685005784034729,-0.5591849684715271,-1.2753143200229348e-14,-0.5004534721374512,-0.21032080054283142,2.95996743385023e-15,0.0,3.0863285064697266,-1.7044544219970703,-0.7670041918754578,15.75,0.0,3.0874013900756836,-1.432657241821289,-0.7670041918754578,20.25,0.0,3.093123435974121,-1.1544227600097656,-0.3835020959377289,23.5,0.0,2.9507875442504883,-1.0263919830322266,-0.3835020959377289,21.25,0.0,2.7626752853393555,-0.1398324966430664,-0.5752531439065933,14.75,0.0,2.8334856033325195,-0.1462697982788086,-0.5752531439065933,23.5,0.0,2.8699636459350586,-0.19741058349609375,-0.5752531439065933,24.0,0.0,3.2476186752319336,-0.15163421630859375,0.0,22.5,0.0,2.9747486114501953,0.06258487701416016,0.0,22.75,0.0,3.107786178588867,0.09119510650634766,0.0,25.0,,,,,,,,,,,,,,,,,,,,
0.0,-0.6961195468902588,2.9186925888061523,-7.774334358245406e-15,-0.8372262120246887,-0.6771320104598999,-8.241301928000808e-15,-0.5698597431182861,-0.3537977337837219,5.555648866975961e-15,0.0,2.957940101623535,-1.3679265975952148,-1.1505062878131866,24.75,0.0,2.9897689819335938,-1.5546083450317383,-1.1505062878131866,18.5,0.0,3.165721893310547,-1.6357898712158203,-0.7670041918754578,13.75,0.0,2.970457077026367,-1.008152961730957,-0.5752531439065933,24.0,0.0,2.7201175689697266,-0.3236532211303711,-0.5752531439065933,17.75,0.0,2.7669668197631836,-0.3590583801269531,-0.5752531439065933,23.5,0.0,2.8831958770751953,-0.34618377685546875,-0.5752531439065933,22.25,0.0,3.077387809753418,-0.13124942779541016,0.0,22.75,0.0,2.9218196868896484,-0.047206878662109375,0.0,23.75,,,,,,,,,,,,,,,,,,,,,,,,,
0.0,-0.7730758786201477,2.8399124145507812,-6.396675080084808e-15,-0.8584339618682861,-0.7708939909934998,-4.857025409443034e-15,-0.5233042240142822,-0.451925128698349,7.308218903634943e-15,0.0,2.9239654541015625,-1.4230012893676758,-0.5752531439065933,19.0,0.0,3.0165910720825195,-1.4941692352294922,-1.1505062878131866,13.75,0.0,2.879619598388672,-1.1887550354003906,-1.5340083837509155,20.0,0.0,2.8717517852783203,-0.5303621292114258,-0.5752531439065933,19.25,0.0,2.6764869689941406,-0.24068355560302734,-0.5752531439065933,15.5,0.0,2.767324447631836,-0.2617835998535156,-0.5752531439065933,18.75,0.0,3.062009811401367,-1.851797103881836,0.0,17.5,0.0,3.303408622741699,-1.7688274383544922,0.0,12.5,0.0,3.0634403228759766,-0.37550926208496094,0.0,23.25,0.0,2.9211044311523438,-0.13947486877441406,0.0,24.0,,,,,,,,,,,,,,,,,,,,
0.0,-0.8724092245101929,2.7212610244750977,-4.896944378181235e-15,-0.8904685974121094,-0.9574710130691528,-1.5463461013645293e-15,-0.4711185395717621,-0.6641749143600464,8.9345526555493e-15,0.0,2.626776695251465,-1.4190673828125,-1.72575943171978,21.5,0.0,2.760171890258789,-1.3997554779052734,-1.342257335782051,21.5,0.0,2.875685691833496,-1.4001131057739258,-1.342257335782051,18.0,0.0,2.9886960983276367,-1.5124082565307617,-0.19175104796886444,12.5,0.0,2.6450157165527344,-0.7578134536743164,-0.9587552398443222,18.75,0.0,2.514481544494629,-0.2950429916381836,-0.9587552398443222,16.0,0.0,2.5588274002075195,-0.3908872604370117,-0.9587552398443222,20.0,0.0,3.014087677001953,-0.7463693618774414,0.0,22.5,,,,,,,,,,,,,,,,,,,,,,,,,,,,,,
0.0,-0.9451484680175781,2.5630037784576416,-3.600538853068373e-15,-0.8499983549118042,-1.2070105075836182,1.2293974898094028e-15,-0.3453197777271271,-0.9324125051498413,1.0137820555364448e-14,0.0,1.9605159759521484,-1.2112855911254883,-1.1505062878131866,17.25,0.0,2.8145313262939453,-1.544952392578125,-2.3010125756263733,14.75,0.0,2.5370121002197266,-1.3246536254882812,-1.342257335782051,22.5,0.0,2.6743412017822266,-1.4015436172485352,-2.3010125756263733,17.75,0.0,2.510547637939453,-1.0728836059570312,-1.342257335782051,26.25,0.0,2.443671226501465,-0.5478858947753906,-1.1505062878131866,22.25,0.0,2.528071403503418,-0.5643367767333984,-1.1505062878131866,25.75,0.0,1.6486644744873047,-1.4340877532958984,0.0,21.0,0.0,2.982974052429199,-0.8243322372436523,0.0,16.75,0.0,2.868533134460449,-0.21028518676757812,0.0,22.75,,,,,,,,,,,,,,,,,,,,
0.0,-1.0381999015808105,2.390174627304077,-2.5615364762307264e-15,-0.8518460988998413,-1.4404308795928955,3.4102948295985838e-15,-0.27580907940864563,-1.133362889289856,1.0889098969030491e-14,0.0,2.249479293823242,-1.2831687927246094,-1.5340083837509155,23.25,0.0,2.3549795150756836,-1.353621482849121,-1.1505062878131866,21.5,0.0,2.4662017822265625,-1.3861656188964844,-1.9175104796886444,16.25,0.0,1.9980669021606445,-0.9970664978027344,-1.5340083837509155,22.75,0.0,3.0001401901245117,-1.3110637664794922,-1.5340083837509155,12.5,0.0,2.2412538528442383,-0.7932186126708984,-1.5340083837509155,22.5,0.0,1.6794204711914062,-1.4133453369140625,0.0,21.75,0.0,3.1006336212158203,-1.7277002334594727,0.0,13.75,,,,,,,,,,,,,,,,,,,,,,,,,,,,,,
0.0,-1.1359729766845703,2.191101551055908,-1.787087052776068e-15,-0.8575351238250732,-1.6854335069656372,5.0103896183893715e-15,-0.21671149134635925,-1.3142313957214355,1.1223953115936745e-14,0.0,2.0155906677246094,-1.3214349746704102,-1.342257335782051,23.75,0.0,2.0706653594970703,-1.3943910598754883,-2.3010125756263733,23.0,0.0,2.207636833190918,-1.4233589172363281,-2.3010125756263733,16.0,0.0,1.983046531677246,-1.1107921600341797,-1.342257335782051,20.0,0.0,1.6930103302001953,-1.4204978942871094,0.0,23.5,,,,,,,,,,,,,,,,,,,,,,,,,,,,,,,,,,,,,,,,,,,,,
0.0,-1.2033733129501343,2.027926206588745,-9.21829344628644e-16,-0.8460534811019897,-1.7930078506469727,6.553683648286707e-15,-0.18922802805900574,-1.2894062995910645,1.149039495279211e-14,0.0,1.8349885940551758,-1.112222671508789,0.19175104796886444,12.75,0.0,1.912236213684082,-1.1783838272094727,-0.3835020959377289,25.0,0.0,2.0263195037841797,-1.1801719665527344,-0.5752531439065933,25.25,0.0,2.176523208618164,-1.1601448059082031,-3.45151886343956,21.5,0.0,2.386808395385742,-1.1082887649536133,-0.7670041918754578,13.25,0.0,1.729130744934082,-1.3747215270996094,0.0,23.0,,,,,,,,,,,,,,,,,,,,,,,,,,,,,,,,,,,,,,,,
0.0,-0.2777644097805023,3.2598166465759277,5.5425329588344225e-17,-0.41129109263420105,-0.38679128885269165,-1.0815637310292563e-16,-0.3424493074417114,-0.1729722023010254,-2.203878349499815e-16,0.0,3.23331356048584,-1.509547233581543,-0.5752531439065933,15.0,0.0,3.425717353820801,-1.3579130172729492,-0.5752531439065933,19.0,0.0,3.552675247192383,-1.2202262878417969,-0.5752531439065933,15.5,0.0,3.196835517883301,-0.057578086853027344,-0.3835020959377289,18.75,0.0,3.1142234802246094,0.22494792938232422,-0.3835020959377289,20.75,0.0,3.0362606048583984,0.3179311752319336,-0.5752531439065933,17.75,0.0,3.291964530944824,-2.3217201232910156,0.0,12.5,0.0,3.603816032409668,-1.1533498764038086,0.0,19.75,0.0,3.4993886947631836,-0.8382797241210938,0.0,22.0,0.0,3.394603729248047,-0.13518333435058594,0.0,26.75,0.0,3.332376480102539,0.013589859008789062,0.0,28.25,0.0,3.2612085342407227,0.1405477523803711,0.0,23.25,,,,,,,,,,
0.0,-0.4223524332046509,3.268709421157837,3.248245290394889e-17,-0.6119900941848755,-0.3719598650932312,-1.429869568466186e-16,-0.47511374950408936,-0.18372592329978943,-2.2777925620595934e-16,0.0,3.5691261291503906,-1.3028383255004883,-0.3835020959377289,15.25,0.0,3.8226842880249023,-1.2710094451904297,-0.5752531439065933,13.25,0.0,3.5480260848999023,-0.8862018585205078,-0.7670041918754578,18.0,0.0,3.3087730407714844,-0.3418922424316406,-0.3835020959377289,16.75,0.0,3.4564733505249023,-0.44596195220947266,-0.7670041918754578,17.25,0.0,3.1778812408447266,-0.13017654418945312,-0.3835020959377289,14.25,0.0,3.5941600799560547,-1.1737346649169922,0.0,19.25,0.0,3.8094520568847656,-1.3092756271362305,0.0,14.0,0.0,3.5126209259033203,-0.8862018585205078,0.0,22.25,0.0,3.3974647521972656,-0.1308917999267578,0.0,26.0,0.0,3.313422203063965,0.02002716064453125,0.0,28.25,0.0,3.108859062194824,0.21028518676757812,0.0,16.0,0.0,3.237605094909668,0.1055002212524414,0.0,24.25,,,,,
0.0,-0.4956502616405487,3.2069671154022217,1.3245029380797118e-17,-0.6624822616577148,-0.48006585240364075,-1.6983161470192451e-16,-0.4667682647705078,-0.317544549703598,-2.301217787611503e-16,0.0,3.3681392669677734,-1.2860298156738281,-0.5752531439065933,19.0,0.0,3.4933090209960938,-1.3232231140136719,-0.5752531439065933,16.25,0.0,3.2340288162231445,-0.8962154388427734,-0.7670041918754578,23.0,0.0,3.3202171325683594,-0.9702444076538086,-0.7670041918754578,22.5,0.0,3.08990478515625,-0.11551380157470703,-0.7670041918754578,18.25,0.0,2.8839111328125,0.13196468353271484,-0.7670041918754578,19.0,0.0,2.910017967224121,0.14698505401611328,-0.7670041918754578,22.5,0.0,3.6177635192871094,-1.1272430419921875,0.0,18.0,0.0,3.813028335571289,-1.2996196746826172,0.0,14.25,0.0,3.3845901489257812,-0.28073787689208984,0.0,24.25,0.0,3.2987594604492188,0.06115436553955078,0.0,28.0,0.0,3.205418586730957,0.12767314910888672,0.0,24.5,,,,,,,,,,
0.0,-0.4273588955402374,3.1127755641937256,-2.628044209538656e-18,-0.4604196548461914,-0.6199116706848145,-1.8960996636921044e-16,-0.2477567046880722,-0.4600113034248352,-2.2809774059412695e-16,0.0,3.3556222915649414,-1.7942190170288086,-0.7670041918754578,12.25,0.0,3.3077001571655273,-0.8082389831542969,-0.9587552398443222,13.0,0.0,3.148198127746582,-0.6140470504760742,-0.9587552398443222,19.75,0.0,3.02731990814209,-0.37157535552978516,-0.9587552398443222,23.25,0.0,2.912163734436035,0.00286102294921875,-0.9587552398443222,25.25,0.0,2.745509147644043,0.2231597900390625,-0.9587552398443222,16.5,0.0,2.8291940689086914,0.16701221466064453,-0.9587552398443222,24.0,0.0,3.8416385650634766,-1.212000846862793,0.0,14.5,0.0,3.2873153686523438,-0.05328655242919922,0.0,26.75,,,,,,,,,,,,,,,,,,,,,,,,,
0.0,-0.4675966501235962,2.999023675918579,-1.5611487234192923e-17,-0.4596751928329468,-0.7987579107284546,-2.0272865383760743e-16,-0.21432381868362427,-0.6391657590866089,-2.2209039764374224e-16,0.0,3.19826602935791,-1.2456178665161133,-1.1505062878131866,13.25,0.0,3.0852556228637695,-1.0460615158081055,-1.342257335782051,17.0,0.0,2.981901168823242,-0.8243322372436523,-1.342257335782051,19.25,0.0,2.8481483459472656,-0.48923492431640625,-1.1505062878131866,19.0,0.0,2.7240514755249023,0.019669532775878906,-1.1505062878131866,22.75,0.0,2.6918649673461914,0.09191036224365234,-0.9587552398443222,20.0,,,,,,,,,,,,,,,,,,,,,,,,,,,,,,,,,,,,,,,,
0.0,-0.5723331570625305,2.870041847229004,-2.4709115741710416e-17,-0.5641782283782959,-1.001348853111267,-2.0838693980438456e-16,-0.26880836486816406,-0.8328678607940674,-2.1180273251308554e-16,0.0,2.78627872467041,-0.9312629699707031,-0.7670041918754578,24.75,0.0,2.8917789459228516,-1.0167360305786133,-1.5340083837509155,24.0,0.0,3.016233444213867,-1.0864734649658203,-1.72575943171978,18.5,0.0,3.200411796569824,-1.0950565338134766,-2.109261527657509,13.5,0.0,2.727985382080078,-0.5893707275390625,-1.342257335782051,23.0,0.0,2.660393714904785,-0.17380714416503906,-0.9587552398443222,19.75,0.0,2.5609731674194336,0.009655952453613281,-0.9587552398443222,12.5,0.0,3.465414047241211,-1.1161565780639648,0.0,16.0,0.0,3.6259889602661133,-1.1272430419921875,0.0,16.75,,,,,,,,,,,,,,,,,,,,,,,,,
0.0,-0.7829962372779846,2.697176694869995,-3.1013747404246684e-17,-0.8286280632019043,-1.290481448173523,-2.080785933418044e-16,-0.4432719945907593,-1.116882085800171,-1.9824575843404365e-16,0.0,1.7305612564086914,-1.4226436614990234,-0.19175104796886444,18.0,0.0,2.907872200012207,-1.7563104629516602,-0.7670041918754578,12.0,0.0,2.634286880493164,-1.2055635452270508,-1.9175104796886444,23.0,0.0,2.721548080444336,-1.3475418090820312,-1.9175104796886444,19.0,0.0,2.8388500213623047,-1.4598369598388672,-1.9175104796886444,16.0,0.0,2.564549446105957,-1.0553598403930664,-1.9175104796886444,25.5,0.0,2.3546218872070312,-0.7846355438232422,-1.1505062878131866,19.25,0.0,2.5234222412109375,-0.7495880126953125,-1.5340083837509155,22.75,0.0,3.625631332397461,-1.0932683944702148,0.0,14.25,,,,,,,,,,,,,,,,,,,,,,,,,
0.0,-0.9109010100364685,2.5008115768432617,-3.72153752281854e-17,-0.9127721786499023,-1.5684975385665894,-2.0638680384834154e-16,-0.44495680928230286,-1.341896891593933,-1.845476077854961e-16,0.0,2.284526824951172,-1.3225078582763672,-1.342257335782051,26.25,0.0,2.381443977355957,-1.316070556640625,-2.4927636235952377,26.75,0.0,2.4619102478027344,-1.3715028762817383,-2.3010125756263733,21.0,0.0,2.5649070739746094,-1.4984607696533203,-0.3835020959377289,12.25,0.0,2.331376075744629,-0.6887912750244141,-1.72575943171978,20.75,0.0,2.2444725036621094,-0.4895925521850586,-1.72575943171978,18.75,0.0,1.7670392990112305,-1.2842416763305664,0.0,23.0,0.0,3.4807920455932617,-1.0410547256469727,0.0,14.0,0.0,3.643512725830078,-1.0228157043457031,0.0,13.25,,,,,,,,,,,,,,,,,,,,,,,,,
0.0,-1.1153794527053833,2.323014974594116,-4.396274704178455e-17,-1.2100965976715088,-1.6614480018615723,-2.0592342388663424e-16,-0.7118157148361206,-1.225606083869934,-1.7314646490611442e-16,0.0,2.201557159423828,-1.2799501419067383,-0.19175104796886444,23.75,0.0,2.28273868560791,-1.3561248779296875,-0.19175104796886444,19.25,0.0,2.384662628173828,-1.4480352401733398,0.3835020959377289,13.0,0.0,2.09963321685791,-1.099705696105957,-0.19175104796886444,23.25,0.0,1.9555091857910156,-0.8304119110107422,-0.5752531439065933,14.25,0.0,2.0159482955932617,-0.9044408798217773,-0.5752531439065933,24.25,0.0,1.832127571105957,-1.1769533157348633,0.0,25.0,0.0,2.491593360900879,-1.2159347534179688,0.0,20.5,0.0,2.4390220642089844,-0.8665323257446289,0.0,22.0,0.0,3.4689903259277344,-1.0753870010375977,0.0,14.25,0.0,3.640294075012207,-1.0231733322143555,0.0,13.5,,,,,,,,,,,,,,,
0.0,-1.287369728088379,2.119035243988037,-5.285361844647196e-17,-1.3946475982666016,-1.8136329650878906,-2.0647134832438936e-16,-0.8347629308700562,-1.2252939939498901,-1.6270384568566938e-16,0.0,1.747727394104004,-1.2102127075195312,0.19175104796886444,16.0,0.0,1.8153190612792969,-1.221299171447754,-0.3835020959377289,26.25,0.0,1.9075870513916016,-1.284956932067871,-0.5752531439065933,23.75,0.0,2.1064281463623047,-1.2803077697753906,-0.5752531439065933,19.25,0.0,1.8671751022338867,-1.119375228881836,0.0,25.25,0.0,2.4976730346679688,-1.2084245681762695,0.0,19.0,0.0,2.421140670776367,-0.8858442306518555,0.0,21.75,,,,,,,,,,,,,,,,,,,,,,,,,,,,,,,,,,,
0.0,-1.376362681388855,1.9473944902420044,-5.883874663432595e-17,-1.388471007347107,-1.8926373720169067,-2.0182385059637243e-16,-0.7642765641212463,-1.1718459129333496,-1.4945471514339522e-16,0.0,1.7319917678833008,-1.142263412475586,-0.9587552398443222,18.5,0.0,1.7741918563842773,-1.221299171447754,-0.19175104796886444,25.25,0.0,2.02023983001709,-1.1719465255737305,-0.19175104796886444,23.0,0.0,2.2058486938476562,-1.1379718780517578,-1.342257335782051,21.0,0.0,2.3413896560668945,-0.9870529174804688,0.0,23.0,,,,,,,,,,,,,,,,,,,,,,,,,,,,,,,,,,,,,,,,,,,,,
0.0,-0.25439268350601196,3.0106561183929443,4.328483919380233e-05,0.031006183475255966,-0.4097839295864105,-0.00022605973936151713,-0.09955640137195587,-0.44414085149765015,-0.00029696369892917573,0.0,3.1392574310302734,-1.9115209579467773,-0.5752531439065933,12.25,0.0,3.1714439392089844,-1.4852285385131836,-0.5752531439065933,21.0,0.0,3.138899803161621,-1.6872882843017578,-0.5752531439065933,19.5,0.0,3.1632184982299805,-1.175522804260254,-0.5752531439065933,17.5,0.0,2.9751062393188477,-0.2703666687011719,-0.5752531439065933,16.5,0.0,2.759099006652832,0.04076957702636719,-0.5752531439065933,28.25,0.0,2.803802490234375,-0.032901763916015625,-0.5752531439065933,25.25,0.0,2.7179718017578125,0.12230873107910156,-0.5752531439065933,24.0,,,,,,,,,,,,,,,,,,,,,,,,,,,,,,
0.0,-0.1829809844493866,2.9265594482421875,1.769917980709579e-05,0.1390531212091446,-0.5416383743286133,-0.0002564465976320207,0.0025005191564559937,-0.5649310946464539,-0.0002972181246150285,0.0,2.8291940689086914,-1.8453598022460938,-0.7670041918754578,20.75,0.0,2.971172332763672,-1.6586780548095703,-0.7670041918754578,18.5,0.0,2.9364824295043945,-0.926971435546875,-0.7670041918754578,13.25,0.0,2.7036666870117188,0.08225440979003906,-0.7670041918754578,27.25,0.0,2.7208328247070312,0.0858306884765625,-0.7670041918754578,30.25,0.0,2.754092216491699,0.0711679458618164,-0.7670041918754578,25.0,0.0,2.614259719848633,0.08511543273925781,-0.7670041918754578,15.0,0.0,3.199338912963867,-1.3189315795898438,0.0,18.5,,,,,,,,,,,,,,,,,,,,,,,,,,,,,,
0.0,-0.1762484610080719,2.834520101547241,-5.037145456299186e-06,0.12434827536344528,-0.6828493475914001,-0.00027994310948997736,-0.009277052246034145,-0.6861504316329956,-0.000293292454443872,0.0,3.030538558959961,-1.4998912811279297,-0.9587552398443222,14.0,0.0,2.992987632751465,-1.247406005859375,-0.9587552398443222,16.75,0.0,2.9561519622802734,-0.9820461273193359,-1.72575943171978,19.5,0.0,2.8706789016723633,-0.5496740341186523,-0.5752531439065933,19.25,0.0,2.523064613342285,0.12409687042236328,-0.7670041918754578,21.5,0.0,2.55739688873291,0.09298324584960938,-0.7670041918754578,25.0,0.0,2.6453733444213867,0.09655952453613281,-0.7670041918754578,21.5,,,,,,,,,,,,,,,,,,,,,,,,,,,,,,,,,,,
0.0,-0.2951602339744568,2.759005546569824,-2.693079659366049e-05,-0.10685845464468002,-0.746863842010498,-0.00030125025659799576,-0.2051338106393814,-0.6661129593849182,-0.0002887401496991515,0.0,2.957940101623535,-1.6268491744995117,-1.342257335782051,14.25,0.0,2.8749704360961914,-1.5342235565185547,-1.342257335782051,16.5,0.0,2.8449296951293945,-1.086115837097168,-0.9587552398443222,19.0,0.0,2.704739570617676,-0.9119510650634766,-0.5752531439065933,24.0,0.0,2.649664878845215,-0.6469488143920898,-0.5752531439065933,25.75,0.0,2.547740936279297,-0.10335445404052734,-0.7670041918754578,19.25,0.0,2.6046037673950195,-0.2263784408569336,-0.5752531439065933,25.25,,,,,,,,,,,,,,,,,,,,,,,,,,,,,,,,,,,
0.0,-0.38173162937164307,2.6800363063812256,-4.614723729901016e-05,-0.2672324776649475,-0.7708767652511597,-0.00031741292332299054,-0.33094143867492676,-0.5757243037223816,-0.00028185072005726397,0.0,2.646803855895996,-1.2205839157104492,-0.9587552398443222,26.25,0.0,2.717256546020508,-1.3926029205322266,-0.7670041918754578,22.0,0.0,2.808809280395508,-1.4526844024658203,-0.7670041918754578,18.25,0.0,2.5638341903686523,-0.7671117782592773,0.19175104796886444,28.0,0.0,2.4805068969726562,-0.3190040588378906,-0.5752531439065933,32.0,0.0,2.39717960357666,-0.1226663589477539,-0.5752531439065933,24.25,0.0,2.444744110107422,-0.21314620971679688,-0.5752531439065933,32.0,,,,,,,,,,,,,,,,,,,,,,,,,,,,,,,,,,,
0.0,-0.6981843709945679,2.589780330657959,-5.610879452433437e-05,-0.8106350898742676,-0.8268837928771973,-0.00031866092467680573,-0.7694674730300903,-0.544966459274292,-0.0002662126498762518,0.0,2.7669668197631836,-1.5177726745605469,-1.72575943171978,15.5,0.0,1.9977092742919922,-1.0457038879394531,-0.19175104796886444,25.25,0.0,2.501964569091797,-1.2166500091552734,0.3835020959377289,29.0,0.0,2.5502443313598633,-1.3164281845092773,-0.9587552398443222,25.0,0.0,2.6307106018066406,-1.4122724533081055,-0.9587552398443222,20.75,0.0,2.4536848068237305,-0.8754730224609375,0.3835020959377289,27.25,0.0,2.3567676544189453,-0.5003213882446289,-0.7670041918754578,26.75,,,,,,,,,,,,,,,,,,,,,,,,,,,,,,,,,,,
0.0,-0.9835572242736816,2.503000259399414,-6.717741780448705e-05,-1.291240930557251,-0.8076468110084534,-0.0003210143477190286,-1.156821608543396,-0.38393521308898926,-0.00025283763534389436,0.0,2.5631189346313477,-1.5910863876342773,0.7670041918754578,15.75,0.0,2.8084516525268555,-1.557469367980957,0.3835020959377289,13.0,0.0,2.041339874267578,-0.9391307830810547,0.19175104796886444,30.75,0.0,2.1042823791503906,-0.9795427322387695,-0.7670041918754578,29.75,0.0,2.2916793823242188,-1.0510683059692383,0.7670041918754578,24.75,0.0,2.4815797805786133,-1.1562108993530273,0.7670041918754578,22.5,0.0,2.532362937927246,-1.3071298599243164,0.7670041918754578,20.0,,,,,,,,,,,,,,,,,,,,,,,,,,,,,,,,,,,
0.0,-1.1515567302703857,2.3657164573669434,-7.513671152992174e-05,-1.4345875978469849,-0.9735008478164673,-0.00031280401162803173,-1.151309609413147,-0.5564942359924316,-0.00023188002523966134,0.0,1.9640922546386719,-1.2727975845336914,-1.342257335782051,27.0,0.0,2.083897590637207,-1.337885856628418,-1.342257335782051,22.0,0.0,1.913309097290039,-1.1429786682128906,0.19175104796886444,26.75,0.0,2.331376075744629,-1.3768672943115234,-0.9587552398443222,15.0,0.0,2.506256103515625,-1.4759302139282227,-0.19175104796886444,16.75,0.0,2.636075019836426,-1.5145540237426758,-0.19175104796886444,14.5,0.0,2.8957128524780273,-1.4476776123046875,0.0,19.0,0.0,3.047347068786621,-1.5864372253417969,0.0,18.75,0.0,2.0760297775268555,-0.9123086929321289,0.0,27.25,,,,,,,,,,,,,,,,,,,,,,,,,
0.0,-1.2737486362457275,2.270890235900879,-7.762954919598997e-05,-1.473177433013916,-1.0460693836212158,-0.00029696206911467016,-1.060752034187317,-0.601231038570404,-0.00020775897428393364,0.0,2.27200984954834,-1.4623403549194336,-0.3835020959377289,14.25,0.0,1.948714256286621,-1.1311769485473633,0.19175104796886444,20.0,0.0,2.0667314529418945,-1.2248754501342773,-0.19175104796886444,23.5,0.0,2.1396875381469727,-1.2985467910766602,-0.3835020959377289,20.25,0.0,2.538442611694336,-1.4587640762329102,-1.1505062878131866,15.25,0.0,2.800583839416504,-1.2938976287841797,-1.1505062878131866,15.25,0.0,2.9636621475219727,-1.2602806091308594,-0.19175104796886444,13.5,0.0,2.779841423034668,-1.5982389450073242,0.0,18.75,0.0,2.899289131164551,-1.7273426055908203,0.0,15.75,0.0,2.074599266052246,-0.903010368347168,0.0,27.25,,,,,,,,,,,,,,,,,,,,
0.0,-1.4138209819793701,2.14345645904541,-9.364309516968206e-05,-1.554894208908081,-1.1386845111846924,-0.00029853376327082515,-1.0358288288116455,-0.6366482377052307,-0.00019584750407375395,0.0,1.794576644897461,-1.328587532043457,-0.19175104796886444,22.0,0.0,1.9562244415283203,-1.262068748474121,-0.19175104796886444,20.25,0.0,2.0738840103149414,-1.3643503189086914,-0.19175104796886444,15.5,0.0,2.9321908950805664,-1.646876335144043,0.0,15.25,0.0,2.0248889923095703,-0.9638071060180664,0.0,28.25,0.0,2.8291940689086914,-1.4948844909667969,0.0,19.5,,,,,,,,,,,,,,,,,,,,,,,,,,,,,,,,,,,,,,,,
0.0,-0.7061108350753784,3.0353877544403076,-2.980605131597258e-06,-0.49349039793014526,-0.7017548680305481,-9.291140486311633e-06,-0.3018077611923218,-0.6206983327865601,-5.682434675691184e-06,0.0,3.1925439834594727,-1.577138900756836,-0.9587552398443222,12.5,0.0,2.984762191772461,-1.2885332107543945,-0.7670041918754578,20.75,0.0,3.1360387802124023,-1.2992620468139648,-0.9587552398443222,16.25,0.0,2.971172332763672,-0.5350112915039062,-0.7670041918754578,22.75,0.0,2.8417110443115234,-0.11301040649414062,-0.7670041918754578,25.25,0.0,2.8853416442871094,-0.24783611297607422,-0.7670041918754578,27.0,0.0,2.735137939453125,0.12230873107910156,-0.7670041918754578,18.0,,,,,,,,,,,,,,,,,,,,,,,,,,,,,,,,,,,
0.0,-0.6427028179168701,2.942898750305176,-3.001910044986289e-06,-0.3188382089138031,-0.8015390038490295,-8.678130143380258e-06,-0.1189446896314621,-0.6740824580192566,-4.948004516336368e-06,0.0,2.8721094131469727,-1.0578632354736328,-1.1505062878131866,25.0,0.0,3.0019283294677734,-1.0221004486083984,-1.1505062878131866,17.75,0.0,2.8274059295654297,-0.49817562103271484,-0.9587552398443222,26.0,0.0,2.6793479919433594,0.05900859832763672,-0.7670041918754578,28.0,0.0,2.7151107788085938,-0.007510185241699219,-0.7670041918754578,29.75,0.0,2.599954605102539,0.0883340835571289,-0.9587552398443222,18.0,0.0,3.864884376525879,-1.1358261108398438,0.0,12.5,,,,,,,,,,,,,,,,,,,,,,,,,,,,,,,,,,,
0.0,-0.6523141264915466,2.838878870010376,-2.930173423010274e-06,-0.2879355549812317,-0.9077127575874329,-7.946102414280176e-06,-0.07847649604082108,-0.719663143157959,-4.181641088507604e-06,0.0,2.8488636016845703,-1.1000633239746094,-1.342257335782051,23.0,0.0,2.915024757385254,-1.3010501861572266,-1.342257335782051,17.25,0.0,2.754807472229004,-0.8600950241088867,-0.5752531439065933,25.5,0.0,2.689361572265625,-0.3533363342285156,-0.5752531439065933,27.5,0.0,2.6339292526245117,-0.2002716064453125,-0.9587552398443222,26.75,0.0,2.5434494018554688,-0.06330013275146484,-0.9587552398443222,20.0,,,,,,,,,,,,,,,,,,,,,,,,,,,,,,,,,,,,,,,,
0.0,-0.7225304245948792,2.7051281929016113,-2.6636275833880063e-06,-0.36628639698028564,-1.0457921028137207,-6.975941687414888e-06,-0.13671892881393433,-0.7830362915992737,-3.310844476800412e-06,0.0,2.882838249206543,-1.3164281845092773,-0.3835020959377289,14.5,0.0,2.6793479919433594,-1.095414161682129,-0.3835020959377289,24.75,0.0,2.761960029602051,-1.1844635009765625,-0.3835020959377289,20.5,0.0,2.235889434814453,-0.7681846618652344,-1.342257335782051,22.0,0.0,2.585291862487793,-0.8643865585327148,-0.3835020959377289,28.25,0.0,2.5119781494140625,-0.4191398620605469,-1.9175104796886444,30.75,0.0,2.4547576904296875,-0.32722949981689453,-1.342257335782051,29.5,,,,,,,,,,,,,,,,,,,,,,,,,,,,,,,,,,,
0.0,-0.8341132402420044,2.532209873199463,-2.364291503909044e-06,-0.4899112284183502,-1.2833317518234253,-5.9686835811589845e-06,-0.2105463296175003,-0.9839849472045898,-2.452719172651996e-06,0.0,2.6335716247558594,-1.2055635452270508,-0.19175104796886444,21.5,0.0,2.690434455871582,-1.3800859451293945,-0.19175104796886444,19.0,0.0,2.787351608276367,-1.5045404434204102,-2.109261527657509,15.0,0.0,2.3260116577148438,-1.0056495666503906,-1.9175104796886444,22.25,0.0,2.545595169067383,-1.1157989501953125,-1.9175104796886444,22.5,0.0,2.2144317626953125,-0.6619691848754883,-1.72575943171978,27.0,0.0,2.1561384201049805,-0.6301403045654297,-2.109261527657509,27.75,,,,,,,,,,,,,,,,,,,,,,,,,,,,,,,,,,,
0.0,-1.1019326448440552,2.4218266010284424,-2.029672259595827e-06,-0.9680466055870056,-1.232662558555603,-5.0198796088807285e-06,-0.675798237323761,-0.7078853845596313,-1.7195422969962237e-06,0.0,1.9147396087646484,-1.0428428649902344,-0.19175104796886444,29.0,0.0,1.9844770431518555,-1.1050701141357422,-0.19175104796886444,25.5,0.0,2.8438568115234375,-1.544952392578125,0.19175104796886444,15.5,0.0,2.8603076934814453,-1.820683479309082,0.19175104796886444,12.25,0.0,1.8968582153320312,-0.9638071060180664,-0.19175104796886444,12.25,0.0,2.1829605102539062,-1.1594295501708984,-0.19175104796886444,18.75,0.0,2.428293228149414,-1.2871026992797852,0.5752531439065933,12.25,0.0,2.616405487060547,-1.3790130615234375,0.5752531439065933,15.25,0.0,2.7462244033813477,-1.444101333618164,0.5752531439065933,16.5,,,,,,,,,,,,,,,,,,,,,,,,,
0.0,-1.211424708366394,2.264967441558838,-1.8749384480543085e-06,-1.0459626913070679,-1.359405517578125,-4.2917686187138315e-06,-0.6777122616767883,-0.7691418528556824,-1.1338709100527922e-06,0.0,1.750946044921875,-0.9477138519287109,-0.5752531439065933,15.0,0.0,1.8453598022460938,-1.0478496551513672,-0.5752531439065933,21.25,0.0,2.018451690673828,-1.1562108993530273,-0.5752531439065933,19.75,0.0,2.1829605102539062,-1.257777214050293,-0.19175104796886444,12.5,0.0,2.375364303588867,-1.408696174621582,-1.1505062878131866,13.0,0.0,2.54058837890625,-1.4466047286987305,-1.342257335782051,14.5,0.0,2.647519111633301,-1.5141963958740234,-1.342257335782051,14.0,,,,,,,,,,,,,,,,,,,,,,,,,,,,,,,,,,,
0.0,-1.3368562459945679,2.1011312007904053,-1.996158061956521e-06,-1.1615002155303955,-1.459606409072876,-3.979343091486953e-06,-0.7336374521255493,-0.7739489078521729,-8.573042578063905e-07,0.0,1.7201900482177734,-1.1812448501586914,-0.19175104796886444,17.75,0.0,1.7495155334472656,-1.2341737747192383,-0.19175104796886444,23.25,0.0,1.8968582153320312,-1.2413263320922852,-0.3835020959377289,17.5,,,,,,,,,,,,,,,,,,,,,,,,,,,,,,,,,,,,,,,,,,,,,,,,,,,,,,,
0.0,-1.4682711362838745,1.9146841764450073,-1.9191727460565744e-06,-1.2745909690856934,-1.5802356004714966,-3.4095623959728982e-06,-0.7840651273727417,-0.7977408170700073,-4.300093792153348e-07,0.0,1.6293525695800781,-1.2810230255126953,-0.19175104796886444,24.25,0.0,1.645803451538086,-1.3604164123535156,-0.19175104796886444,29.5,0.0,1.705169677734375,-1.4240741729736328,-0.5752531439065933,23.5,0.0,1.588582992553711,-1.1855363845825195,0.19175104796886444,17.75,0.0,2.670764923095703,-0.40411949157714844,0.0,21.75,,,,,,,,,,,,,,,,,,,,,,,,,,,,,,,,,,,,,,,,,,,,,
0.0,-1.5030573606491089,1.8045848608016968,-1.6956553281488596e-06,-1.1920266151428223,-1.5430301427841187,-2.680995748960413e-06,-0.6556286215782166,-0.6696435809135437,7.051005468383664e-08,0.0,1.6357898712158203,-1.118302345275879,-0.19175104796886444,14.5,0.0,1.6758441925048828,-1.156926155090332,-0.19175104796886444,19.0,0.0,1.819610595703125,-1.1898279190063477,-0.19175104796886444,22.25,0.0,1.9229650497436523,-1.291036605834961,-0.3835020959377289,22.25,0.0,2.022385597229004,-1.3232231140136719,-0.5752531439065933,15.25,0.0,1.978754997253418,-0.9752511978149414,0.0,30.5,,,,,,,,,,,,,,,,,,,,,,,,,,,,,,,,,,,,,,,,
0.0,-1.5723917484283447,1.719391107559204,-1.6494042256454122e-06,-1.1828633546829224,-1.461259126663208,-2.2515571345138596e-06,-0.6121308207511902,-0.5087156891822815,3.4109405078197597e-07,0.0,1.8028020858764648,-1.294255256652832,0.19175104796886444,20.25,0.0,1.9748210906982422,-1.2087821960449219,0.19175104796886444,18.75,0.0,2.098560333251953,-1.2642145156860352,-0.3835020959377289,12.25,0.0,1.7513036727905273,-1.1286735534667969,0.0,12.75,0.0,1.966238021850586,-0.9909868240356445,0.0,30.75,,,,,,,,,,,,,,,,,,,,,,,,,,,,,,,,,,,,,,,,,,,,,
0.0,-1.6037306785583496,1.670381784439087,-1.4562770047632512e-06,-1.1185686588287354,-1.300768256187439,-1.6657202195347054e-06,-0.5372284054756165,-0.28045839071273804,6.905762575115659e-07,0.0,1.5846490859985352,-1.1669397354125977,0.19175104796886444,12.25,0.0,1.7277002334594727,-1.178741455078125,0.19175104796886444,17.0,0.0,1.8160343170166016,-1.2406110763549805,0.19175104796886444,23.5,0.0,1.9068717956542969,-1.2270212173461914,0.19175104796886444,21.5,0.0,1.7420053482055664,-1.1447668075561523,0.0,16.75,0.0,1.9426345825195312,-1.0120868682861328,0.0,30.75,,,,,,,,,,,,,,,,,,,,,,,,,,,,,,,,,,,,,,,,
0.0,-1.7003227472305298,1.5643073320388794,-1.5097155028342968e-06,-1.1461864709854126,-1.2783581018447876,-1.4516454029944725e-06,-0.5202054977416992,-0.2287158966064453,7.825831289665075e-07,0.0,1.7566680908203125,-1.4290809631347656,0.19175104796886444,17.5,0.0,1.7387866973876953,-1.1254549026489258,0.0,19.0,,,,,,,,,,,,,,,,,,,,,,,,,,,,,,,,,,,,,,,,,,,,,,,,,,,,,,,,,,,,
0.0,-0.12030123174190521,3.0928475856781006,-1.6965064020268983e-08,-0.09324568510055542,-0.6195070147514343,2.2101559693510353e-08,-0.3374698758125305,-0.34959763288497925,4.450030033353869e-08,0.0,3.2318830490112305,-1.5546083450317383,-0.7670041918754578,13.0,0.0,3.170013427734375,-1.3042688369750977,-0.5752531439065933,17.0,0.0,3.1381845474243164,-0.4938840866088867,-0.7670041918754578,19.75,0.0,3.0530691146850586,-0.17380714416503906,-0.7670041918754578,25.0,0.0,2.938985824584961,0.06330013275146484,-0.5752531439065933,16.5,0.0,3.009796142578125,-0.0171661376953125,-0.3835020959377289,24.5,,,,,,,,,,,,,,,,,,,,,,,,,,,,,,,,,,,,,,,,
0.0,-0.2595662474632263,3.0313594341278076,-1.1010462763749729e-08,-0.33734965324401855,-0.6632623076438904,3.058979558545616e-08,-0.5112034678459167,-0.3699035942554474,4.686025789624182e-08,0.0,3.2869577407836914,-1.4033317565917969,-1.5340083837509155,14.75,0.0,3.100275993347168,-0.9838342666625977,-0.5752531439065933,18.75,0.0,3.285527229309082,-1.055002212524414,-0.9587552398443222,17.75,0.0,2.9332637786865234,-0.331878662109375,-0.7670041918754578,25.25,0.0,2.9840469360351562,-0.46312808990478516,-0.5752531439065933,22.5,0.0,2.900362014770508,-0.18203258514404297,-0.7670041918754578,20.0,,,,,,,,,,,,,,,,,,,,,,,,,,,,,,,,,,,,,,,,
0.0,-0.388175368309021,2.955504894256592,-6.071351865699626e-09,-0.5318558812141418,-0.7659521698951721,3.699673456480923e-08,-0.62315833568573,-0.4859115183353424,4.78359396538508e-08,0.0,3.132462501525879,-1.0063648223876953,-1.1505062878131866,22.5,0.0,3.1964778900146484,-1.0439157485961914,-1.342257335782051,16.75,0.0,3.0330419540405273,-0.8887052536010742,-1.1505062878131866,19.5,0.0,2.913236618041992,-0.29218196868896484,-0.7670041918754578,18.75,0.0,2.814173698425293,-0.07903575897216797,-0.9587552398443222,18.0,,,,,,,,,,,,,,,,,,,,,,,,,,,,,,,,,,,,,,,,,,,,,
0.0,-0.5539767146110535,2.8604679107666016,-1.7317545175643545e-09,-0.7725228071212769,-0.8597753643989563,4.216554927438665e-08,-0.7680516839027405,-0.5482549667358398,4.8043979461454e-08,0.0,3.0069351196289062,-1.958012580871582,-1.72575943171978,12.25,0.0,2.971529960632324,-1.6046762466430664,-1.9175104796886444,14.5,0.0,2.7605295181274414,-1.0292530059814453,-0.3835020959377289,27.25,0.0,2.8409957885742188,-1.1115074157714844,-0.3835020959377289,26.25,0.0,2.971172332763672,-1.147627830505371,-1.342257335782051,20.25,0.0,2.747654914855957,-0.5761384963989258,-1.1505062878131866,25.0,0.0,2.683281898498535,-0.20456314086914062,-1.1505062878131866,20.5,,,,,,,,,,,,,,,,,,,,,,,,,,,,,,,,,,,
0.0,-0.7221948504447937,2.7433454990386963,1.5852895662860078e-09,-0.9754909873008728,-1.0135774612426758,4.536480702199697e-08,-0.8570906519889832,-0.6958861947059631,4.7023966942560946e-08,0.0,1.7244815826416016,-1.4208555221557617,-0.19175104796886444,17.5,0.0,2.917170524597168,-1.7330646514892578,0.19175104796886444,14.5,0.0,2.866029739379883,-1.4115571975708008,-1.5340083837509155,17.25,0.0,2.795577049255371,-1.1365413665771484,-1.5340083837509155,21.0,0.0,2.7387142181396484,-0.9974241256713867,-1.5340083837509155,26.5,0.0,2.698659896850586,-0.7721185684204102,-0.7670041918754578,26.25,0.0,2.4465322494506836,-0.5182027816772461,-0.7670041918754578,19.5,0.0,2.6074647903442383,-0.42700767517089844,-0.7670041918754578,23.25,0.0,1.6787052154541016,-1.4526844024658203,0.0,20.5,0.0,2.039194107055664,-1.547098159790039,0.0,17.75,,,,,,,,,,,,,,,,,,,,
0.0,-0.8549067974090576,2.575582504272461,4.227093786113301e-09,-1.0795183181762695,-1.245387077331543,4.717214352467636e-08,-0.8432468771934509,-0.9157201051712036,4.519236185274167e-08,0.0,2.4472475051879883,-1.1612176895141602,-1.5340083837509155,24.75,0.0,2.545952796936035,-1.2763738632202148,-1.5340083837509155,20.75,0.0,2.7358531951904297,-1.272439956665039,-1.1505062878131866,13.0,0.0,2.3778676986694336,-1.0056495666503906,-1.1505062878131866,25.5,0.0,2.2737979888916016,-0.6798505783081055,-1.1505062878131866,15.0,0.0,2.3546218872070312,-0.7975101470947266,-1.1505062878131866,23.0,0.0,1.691579818725586,-1.4280080795288086,0.0,21.0,0.0,1.8600225448608398,-1.4677047729492188,0.0,19.75,,,,,,,,,,,,,,,,,,,,,,,,,,,,,,
0.0,-1.0679645538330078,2.4050450325012207,6.987101119904082e-09,-1.353960394859314,-1.3943589925765991,4.8957392806414646e-08,-1.0173505544662476,-0.9557276368141174,4.353347193841728e-08,0.0,1.9644498825073242,-1.1723041534423828,-0.19175104796886444,25.75,0.0,2.1250247955322266,-1.1522769927978516,-0.19175104796886444,28.25,0.0,2.398252487182617,-1.478433609008789,-0.9587552398443222,17.25,0.0,2.2455453872680664,-1.1676549911499023,0.5752531439065933,29.0,0.0,2.342104911804199,-1.247406005859375,-1.72575943171978,24.0,0.0,2.515554428100586,-0.7359981536865234,0.0,22.25,,,,,,,,,,,,,,,,,,,,,,,,,,,,,,,,,,,,,,,,
0.0,-1.2012803554534912,2.2490592002868652,9.60435819763461e-09,-1.4514483213424683,-1.4983644485473633,5.015088433424353e-08,-1.019911289215088,-0.9541456699371338,4.158722788361047e-08,0.0,2.1947622299194336,-1.2334585189819336,-0.5752531439065933,22.25,0.0,2.2884607315063477,-1.3246536254882812,-0.5752531439065933,17.5,0.0,2.021670341491699,-0.9777545928955078,-0.3835020959377289,23.0,0.0,2.1146535873413086,-1.055002212524414,-0.3835020959377289,23.0,0.0,2.2995471954345703,-1.1354684829711914,0.0,24.25,0.0,3.084897994995117,-1.468062400817871,0.0,15.75,0.0,2.9439926147460938,-1.279592514038086,0.0,17.75,,,,,,,,,,,,,,,,,,,,,,,,,,,,,,,,,,,
