tid,posx,posy,posz,velx,vely,velz,accx,accy,accz,pointx1,pointy1,pointz1,doppler1,snr1,pointx2,pointy2,pointz2,doppler2,snr2,pointx3,pointy3,pointz3,doppler3,snr3,pointx4,pointy4,pointz4,doppler4,snr4,pointx5,pointy5,pointz5,doppler5,snr5,pointx6,pointy6,pointz6,doppler6,snr6,pointx7,pointy7,pointz7,doppler7,snr7,pointx8,pointy8,pointz8,doppler8,snr8,pointx9,pointy9,pointz9,doppler9,snr9,pointx10,pointy10,pointz10,doppler10,snr10,pointx11,pointy11,pointz11,doppler11,snr11,pointx12,pointy12,pointz12,doppler12,snr12,pointx13,pointy13,pointz13,doppler13,snr13,pointx14,pointy14,pointz14,doppler14,snr14
0.0,-0.2684333026409149,2.7641520500183105,0.0069112954661250114,-0.0790228396654129,-0.37429872155189514,0.026119571179151535,-0.43237802386283875,-0.22988712787628174,0.025604942813515663,0.0,2.851724624633789,-1.0972023010253906,-0.5752531439065933,22.0,0.0,2.763032913208008,-0.9216070175170898,-0.5752531439065933,22.5,0.0,2.996206283569336,-1.0045766830444336,-0.3835020959377289,13.75,0.0,2.656102180480957,-0.4502534866333008,0.19175104796886444,24.25,0.0,2.5320053100585938,-0.1055002212524414,-0.5752531439065933,21.75,0.0,2.5731325149536133,-0.20992755889892578,-0.5752531439065933,26.0,,,,,,,,,,,,,,,,,,,,,,,,,,,,,,,,,,,,,,,,
0.0,-0.3343335688114166,2.709721803665161,0.006578035652637482,-0.21254323422908783,-0.45532330870628357,0.024686630815267563,-0.5032339692115784,-0.3249485492706299,0.0234576016664505,0.0,2.8967857360839844,-1.1955499649047852,-0.5752531439065933,13.25,0.0,2.786993980407715,-0.9058713912963867,-0.5752531439065933,24.5,0.0,2.8249025344848633,-1.041412353515625,-0.5752531439065933,20.75,0.0,2.7104616165161133,-0.5239248275756836,-0.5752531439065933,23.0,0.0,2.575993537902832,-0.12230873107910156,-0.5752531439065933,23.5,0.0,2.4704933166503906,0.07653236389160156,-0.5752531439065933,21.25,0.0,2.367854118347168,0.15807151794433594,-0.5752531439065933,14.25,,,,,,,,,,,,,,,,,,,,,,,,,,,,,,,,,,,
0.0,-0.37201863527297974,2.6373777389526367,0.006642667111009359,-0.2790828347206116,-0.567111074924469,0.023728402331471443,-0.5096890330314636,-0.45018404722213745,0.02167201228439808,0.0,2.589583396911621,-1.4330148696899414,-0.7670041918754578,21.75,0.0,2.8030872344970703,-1.225590705871582,-0.7670041918754578,18.5,0.0,3.007650375366211,-1.017451286315918,-0.5752531439065933,14.0,0.0,2.635359764099121,-0.6977319717407227,-0.7670041918754578,19.25,0.0,2.480149269104004,-0.23746490478515625,-0.3835020959377289,22.0,0.0,2.384662628173828,-0.10657310485839844,-0.9587552398443222,24.75,0.0,2.335667610168457,-0.037550926208496094,-0.9587552398443222,21.25,0.0,2.969026565551758,-1.5767812728881836,0.0,13.75,,,,,,,,,,,,,,,,,,,,,,,,,,,,,,
0.0,-0.4855806827545166,2.577747344970703,0.006398925557732582,-0.4714917540550232,-0.6355465650558472,0.022480422630906105,-0.6271408796310425,-0.49323412775993347,0.019869940355420113,0.0,2.6013851165771484,-1.0793209075927734,-1.1505062878131866,24.5,0.0,2.648591995239258,-1.157999038696289,-0.5752531439065933,22.5,0.0,2.7794837951660156,-1.224517822265625,-0.3835020959377289,18.25,0.0,2.9414892196655273,-1.260995864868164,-0.3835020959377289,16.25,0.0,2.532362937927246,-0.6176233291625977,-0.5752531439065933,18.0,0.0,2.2687911987304688,0.051140785217285156,-0.3835020959377289,23.5,0.0,2.31170654296875,0.05793571472167969,-0.5752531439065933,23.5,0.0,2.877473831176758,-1.4340877532958984,0.0,17.75,,,,,,,,,,,,,,,,,,,,,,,,,,,,,,
0.0,-0.6260485649108887,2.487576961517334,0.006450519431382418,-0.6789883971214294,-0.7739722728729248,0.021499963477253914,-0.7382020950317383,-0.6352421045303345,0.01825956627726555,0.0,2.620697021484375,-1.7734766006469727,-0.3835020959377289,12.25,0.0,2.6110410690307617,-1.4716386795043945,-1.1505062878131866,17.75,0.0,2.4079084396362305,-1.2127161026000977,-0.5752531439065933,22.25,0.0,2.4765729904174805,-1.2445449829101562,-1.1505062878131866,25.25,0.0,2.5402307510375977,-1.3207197189331055,-1.1505062878131866,21.0,0.0,2.153635025024414,-0.14770030975341797,-0.3835020959377289,21.0,0.0,2.296328544616699,-0.1283884048461914,-0.3835020959377289,15.25,0.0,2.8742551803588867,-1.7513036727905273,0.0,13.25,,,,,,,,,,,,,,,,,,,,,,,,,,,,,,
0.0,-0.7970127463340759,2.3663201332092285,0.006058020982891321,-0.8927851319313049,-0.9851098656654358,0.019879555329680443,-0.8264214396476746,-0.8697911500930786,0.0163582693785429,0.0,2.1207332611083984,-1.2781620025634766,-1.1505062878131866,18.25,0.0,2.2995471954345703,-1.3328790664672852,-1.5340083837509155,23.5,0.0,2.3474693298339844,-1.4061927795410156,-1.5340083837509155,22.25,0.0,2.434372901916504,-1.445174217224121,-0.19175104796886444,20.25,0.0,2.6189088821411133,-1.4151334762573242,-0.19175104796886444,14.75,0.0,2.283453941345215,-0.8132457733154297,-1.1505062878131866,17.25,0.0,2.1468400955200195,-0.2599954605102539,-0.7670041918754578,20.5,0.0,2.8520822525024414,-1.8142461776733398,0.0,12.5,,,,,,,,,,,,,,,,,,,,,,,,,,,,,,
0.0,-0.9333294034004211,2.2212812900543213,0.006013281177729368,-1.017653465270996,-1.190096139907837,0.01876012422144413,-0.8304479122161865,-1.0472893714904785,0.01483222097158432,0.0,2.034902572631836,-1.3053417205810547,-1.5340083837509155,26.0,0.0,2.0627975463867188,-1.4262199401855469,-1.5340083837509155,22.5,0.0,2.1364688873291016,-1.5292167663574219,-1.9175104796886444,17.0,0.0,2.343893051147461,-1.6100406646728516,0.19175104796886444,12.5,0.0,2.0384788513183594,-0.7556676864624023,-1.342257335782051,24.0,0.0,1.948714256286621,-0.5636215209960938,-1.342257335782051,18.75,0.0,2.7440786361694336,-1.6382932662963867,0.0,12.75,0.0,2.645730972290039,-1.2123584747314453,0.0,19.75,0.0,2.7397871017456055,-1.2552738189697266,0.0,17.75,,,,,,,,,,,,,,,,,,,,,,,,,
0.0,-1.0017399787902832,2.045469284057617,0.0059586213901638985,-0.956475555896759,-1.4527573585510254,0.017544975504279137,-0.6343475580215454,-1.3017807006835938,0.013286974281072617,0.0,1.8346309661865234,-1.3110637664794922,-2.3010125756263733,25.5,0.0,1.914381980895996,-1.392960548400879,-2.3010125756263733,27.5,0.0,1.947641372680664,-1.456618309020996,-2.3010125756263733,19.5,0.0,1.7173290252685547,-0.7570981979370117,-1.72575943171978,17.75,0.0,1.8156766891479492,-0.8161067962646484,-1.72575943171978,17.75,0.0,2.6242733001708984,-1.2305974960327148,0.0,19.75,0.0,2.697587013244629,-1.2756586074829102,0.0,17.0,,,,,,,,,,,,,,,,,,,,,,,,,,,,,,,,,,,
0.0,-1.1138877868652344,1.8673776388168335,0.006455765105783939,-1.028890609741211,-1.6424620151519775,0.01718233898282051,-0.6268524527549744,-1.3811850547790527,0.012350557371973991,0.0,1.4369487762451172,-1.0085105895996094,-0.19175104796886444,12.5,0.0,1.7316341400146484,-1.2656450271606445,-1.72575943171978,18.25,0.0,1.8786191940307617,-1.3511180877685547,-1.72575943171978,14.0,,,,,,,,,,,,,,,,,,,,,,,,,,,,,,,,,,,,,,,,,,,,,,,,,,,,,,,
0.0,-1.299660563468933,1.6715037822723389,0.006147421430796385,-1.2803751230239868,-1.7910759449005127,0.01591143198311329,-0.8306370377540588,-1.3540338277816772,0.011035153642296791,0.0,1.3418197631835938,-1.1647939682006836,0.3835020959377289,16.75,0.0,1.4115571975708008,-1.2323856353759766,0.3835020959377289,20.75,0.0,1.556396484375,-1.2502670288085938,-0.3835020959377289,22.0,0.0,1.6694068908691406,-1.2617111206054688,-0.3835020959377289,25.0,0.0,1.740574836730957,-1.3625621795654297,-0.3835020959377289,13.75,,,,,,,,,,,,,,,,,,,,,,,,,,,,,,,,,,,,,,,,,,,,,
0.0,-0.11555375903844833,2.8023836612701416,0.0004075449542142451,0.6118369102478027,-0.48171383142471313,0.0010016063461080194,0.22102943062782288,-0.8671330809593201,0.0006433103699237108,0.0,2.773761749267578,-1.5764236450195312,-0.3835020959377289,13.25,0.0,2.7894973754882812,-1.3010501861572266,-0.3835020959377289,19.5,0.0,2.8188228607177734,-0.652313232421875,-0.3835020959377289,19.25,0.0,2.6732683181762695,-0.09334087371826172,-0.5752531439065933,22.5,0.0,2.58028507232666,0.023245811462402344,-0.5752531439065933,24.5,0.0,2.5173425674438477,0.08046627044677734,-0.5752531439065933,20.75,0.0,3.2193660736083984,-1.5124082565307617,0.0,14.25,0.0,3.1124353408813477,-1.3175010681152344,0.0,18.5,0.0,2.711176872253418,0.0629425048828125,0.0,30.25,0.0,2.8073787689208984,-0.07867813110351562,0.0,25.5,,,,,,,,,,,,,,,,,,,,
0.0,-0.06620682775974274,2.712139368057251,0.00041248431080020964,0.6094992160797119,-0.6389274597167969,0.0009520090534351766,0.2004207819700241,-0.9459588527679443,0.0005770026473328471,0.0,2.6285648345947266,-1.7262697219848633,-0.5752531439065933,23.75,0.0,2.730131149291992,-1.7180442810058594,-0.5752531439065933,21.0,0.0,2.7015209197998047,-1.3271570205688477,-0.5752531439065933,21.0,0.0,3.0405521392822266,-1.4812946319580078,-0.5752531439065933,16.75,0.0,3.349184989929199,-1.3500452041625977,-0.5752531439065933,14.0,0.0,3.5015344619750977,-1.4026165008544922,-0.5752531439065933,13.75,0.0,2.5606155395507812,-0.12087821960449219,-0.7670041918754578,25.25,0.0,2.6525259017944336,-0.15163421630859375,-0.7670041918754578,22.75,0.0,2.3946762084960938,0.03826618194580078,-0.9587552398443222,13.75,0.0,2.492666244506836,-0.02288818359375,-0.7670041918754578,22.25,0.0,2.8220415115356445,-0.2206563949584961,0.0,26.0,,,,,,,,,,,,,,,
0.0,-0.06763551384210587,2.625626564025879,0.00040560384513810277,0.5265056490898132,-0.7616597414016724,0.0008900984539650381,0.11554693430662155,-0.9723538756370544,0.0005082375719211996,0.0,2.90679931640625,-1.3589859008789062,-0.7670041918754578,17.0,0.0,2.731204032897949,-1.1783838272094727,-0.7670041918754578,22.75,0.0,2.79843807220459,-1.2631416320800781,-0.7670041918754578,21.0,0.0,3.1174421310424805,-1.3257265090942383,-0.7670041918754578,13.5,0.0,2.685427665710449,-0.7939338684082031,-0.7670041918754578,18.0,0.0,2.544522285461426,-0.12052059173583984,-0.9587552398443222,18.25,0.0,2.4379491806030273,-0.0286102294921875,-0.7670041918754578,18.0,0.0,2.34067440032959,0.07867813110351562,-0.7670041918754578,13.0,,,,,,,,,,,,,,,,,,,,,,,,,,,,,,
0.0,-0.13803574442863464,2.561058521270752,0.00037203257670626044,0.341871052980423,-0.8161996603012085,0.0008007505675777793,-0.04482162743806839,-0.9147030711174011,0.00042883859714493155,0.0,2.6493072509765625,-1.2323856353759766,-0.9587552398443222,19.0,0.0,2.5992393493652344,-0.9902715682983398,-0.9587552398443222,19.25,0.0,2.8449296951293945,-1.1372566223144531,-0.19175104796886444,15.25,0.0,3.0394792556762695,-0.9595155715942383,-0.19175104796886444,13.25,0.0,2.515554428100586,-0.5235671997070312,-0.9587552398443222,16.5,0.0,2.276301383972168,0.09834766387939453,-0.7670041918754578,18.0,0.0,2.3353099822998047,0.07975101470947266,-0.7670041918754578,18.5,,,,,,,,,,,,,,,,,,,,,,,,,,,,,,,,,,,
0.0,-0.13813285529613495,2.479058027267456,0.00037764263106510043,0.2826940715312958,-0.896084189414978,0.0007570837624371052,-0.08992651849985123,-0.8987994194030762,0.0003794418298639357,0.0,2.454400062561035,-1.5735626220703125,-0.9587552398443222,16.25,0.0,2.3145675659179688,-1.2592077255249023,-0.9587552398443222,19.25,0.0,2.37429141998291,-1.3303756713867188,-0.9587552398443222,20.5,0.0,2.8159618377685547,-1.2956857681274414,-0.9587552398443222,16.25,0.0,2.9021501541137695,-1.271367073059082,-1.1505062878131866,12.25,0.0,2.3249387741088867,-0.08690357208251953,-0.7670041918754578,17.0,0.0,2.2290945053100586,0.02467632293701172,-0.7670041918754578,18.5,,,,,,,,,,,,,,,,,,,,,,,,,,,,,,,,,,,
0.0,-0.21757373213768005,2.3978090286254883,0.0003984227660112083,0.10164636373519897,-0.9414984583854675,0.0007320981821976602,-0.23136255145072937,-0.8328593373298645,0.0003442203742451966,0.0,2.5048255920410156,-1.9748210906982422,-2.3010125756263733,14.5,0.0,2.476215362548828,-1.7262697219848633,-1.342257335782051,18.25,0.0,2.2569894790649414,-1.2645721435546875,-1.1505062878131866,24.0,0.0,2.339601516723633,-1.3933181762695312,-1.1505062878131866,21.5,0.0,2.4901628494262695,-1.410841941833496,-1.342257335782051,20.75,0.0,2.203702926635742,-1.028895378112793,-0.3835020959377289,25.0,0.0,2.16829776763916,-0.5221366882324219,-0.7670041918754578,22.75,0.0,2.728700637817383,-1.6647577285766602,0.0,18.75,,,,,,,,,,,,,,,,,,,,,,,,,,,,,,
0.0,-0.22773951292037964,2.3009872436523438,0.0004357499710749835,0.0474511943757534,-1.0150419473648071,0.0007244255393743515,-0.25711262226104736,-0.8163502216339111,0.0003204534004908055,0.0,2.6085376739501953,-1.8593072891235352,-3.068016767501831,12.25,0.0,2.123594284057617,-1.2180805206298828,-0.7670041918754578,24.25,0.0,2.2412538528442383,-1.2956857681274414,-2.4927636235952377,24.0,0.0,2.332448959350586,-1.3986825942993164,-1.72575943171978,21.5,0.0,2.441883087158203,-1.4677047729492188,-2.3010125756263733,20.25,0.0,2.5337934494018555,-1.6132593154907227,-3.068016767501831,15.5,0.0,2.136826515197754,-0.36978721618652344,-0.7670041918754578,22.75,0.0,2.7326345443725586,-1.6443729400634766,0.0,18.25,,,,,,,,,,,,,,,,,,,,,,,,,,,,,,
0.0,-0.492276668548584,2.090336799621582,0.00033318944042548537,-0.3924719989299774,-1.3370558023452759,0.0005532040959224105,-0.5778169631958008,-1.115805983543396,0.0002012868644669652,0.0,2.12252140045166,-1.2466907501220703,-2.3010125756263733,15.5,0.0,1.932978630065918,-0.9398460388183594,-1.9175104796886444,26.0,0.0,2.0570755004882812,-1.0678768157958984,-2.109261527657509,23.75,0.0,1.7899274826049805,-0.744938850402832,-1.9175104796886444,17.75,0.0,1.843571662902832,-0.7703304290771484,-1.9175104796886444,20.0,0.0,2.7358531951904297,-1.6533136367797852,0.0,17.75,,,,,,,,,,,,,,,,,,,,,,,,,,,,,,,,,,,,,,,,
0.0,-0.8882062435150146,1.962717890739441,0.00024708121782168746,-1.0208537578582764,-1.3760733604431152,0.00041678285924717784,-1.0483970642089844,-0.9937413334846497,0.00011437100329203531,0.0,1.8721818923950195,-1.6061067581176758,-0.3835020959377289,15.25,0.0,1.7734766006469727,-1.2384653091430664,-0.9587552398443222,22.25,0.0,1.862168312072754,-1.397252082824707,-0.3835020959377289,19.75,0.0,1.691579818725586,-0.9759664535522461,-0.5752531439065933,19.0,0.0,1.6100406646728516,-0.8071660995483398,-0.5752531439065933,14.0,0.0,1.6300678253173828,-0.8600950241088867,-0.5752531439065933,20.5,0.0,2.742648124694824,-1.6586780548095703,0.0,17.25,,,,,,,,,,,,,,,,,,,,,,,,,,,,,,,,,,,
0.0,-1.0717854499816895,1.795370101928711,0.0002338635385967791,-1.2526531219482422,-1.5111936330795288,0.00036500903661362827,-1.1553499698638916,-1.0219871997833252,7.791745156282559e-05,0.0,1.5796422958374023,-1.2166500091552734,-0.7670041918754578,13.25,0.0,1.8085241317749023,-1.4380216598510742,-0.7670041918754578,15.75,0.0,1.478433609008789,-1.1150836944580078,-0.19175104796886444,13.25,0.0,2.8177499771118164,-1.4830827713012695,0.0,14.25,,,,,,,,,,,,,,,,,,,,,,,,,,,,,,,,,,,,,,,,,,,,,,,,,,
0.0,-1.1179579496383667,1.7206239700317383,0.0002300554479006678,-1.1848547458648682,-1.5217890739440918,0.00032565282890573144,-0.9702568054199219,-0.9765474796295166,5.0021742936223745e-05,0.0,2.595663070678711,-1.0567903518676758,-1.342257335782051,12.5,0.0,2.6639699935913086,-1.1025667190551758,-1.342257335782051,13.0,0.0,2.434372901916504,-1.2516975402832031,0.0,16.75,0.0,2.8367042541503906,-1.4666318893432617,0.0,13.0,,,,,,,,,,,,,,,,,,,,,,,,,,,,,,,,,,,,,,,,,,,,,,,,,,
0.0,-1.2326064109802246,1.5738657712936401,0.00017762102652341127,-1.2700607776641846,-1.6011244058609009,0.0002318477345397696,-0.9627766013145447,-0.9579505920410156,-7.608359737787396e-06,0.0,1.3782978057861328,-1.1065006256103516,-0.3835020959377289,13.75,0.0,1.4251470565795898,-1.1562108993530273,-0.3835020959377289,17.0,0.0,1.5674829483032227,-1.2177228927612305,-0.3835020959377289,15.5,0.0,1.7284154891967773,-1.2878179550170898,-0.5752531439065933,18.25,0.0,1.8982887268066406,-1.2481212615966797,-0.5752531439065933,13.25,,,,,,,,,,,,,,,,,,,,,,,,,,,,,,,,,,,,,,,,,,,,,
0.0,-1.3444770574569702,1.4642518758773804,0.0001609328028280288,-1.3389548063278198,-1.6061570644378662,0.00018435707897879183,-0.9470924735069275,-0.871673583984375,-3.49800284311641e-05,0.0,1.5392303466796875,-1.3235807418823242,-0.19175104796886444,19.75,0.0,1.7398595809936523,-1.2177228927612305,-0.19175104796886444,21.25,0.0,1.8793344497680664,-1.2080669403076172,-0.19175104796886444,14.5,0.0,2.5516748428344727,-1.3496875762939453,0.0,15.75,,,,,,,,,,,,,,,,,,,,,,,,,,,,,,,,,,,,,,,,,,,,,,,,,,
0.0,-1.4455326795578003,1.389780044555664,0.00015397668175864965,-1.3769450187683105,-1.5431827306747437,0.00015096641436684877,-0.9079204797744751,-0.7310517430305481,-5.2452418458415195e-05,0.0,1.8475055694580078,-1.1740922927856445,0.19175104796886444,16.0,0.0,1.9483566284179688,-1.1562108993530273,-0.19175104796886444,12.25,0.0,2.5212764739990234,-1.3747215270996094,0.0,14.25,,,,,,,,,,,,,,,,,,,,,,,,,,,,,,,,,,,,,,,,,,,,,,,,,,,,,,,
0.0,-0.36703741550445557,2.7548725605010986,0.0072614410892128944,-0.0029327794909477234,-0.32815003395080566,0.021234748885035515,-0.28752774000167847,-0.7206559181213379,0.01698189042508602,0.0,2.754807472229004,-1.5735626220703125,-0.3835020959377289,17.5,0.0,2.808809280395508,-1.3425350189208984,-0.3835020959377289,21.0,0.0,2.8066635131835938,-0.8314847946166992,-0.3835020959377289,19.25,0.0,2.704739570617676,-0.3243684768676758,-0.3835020959377289,20.75,0.0,2.603888511657715,-0.1087188720703125,-0.3835020959377289,20.5,0.0,2.478361129760742,0.19347667694091797,-0.3835020959377289,17.25,0.0,2.9886960983276367,-1.5871524810791016,0.0,15.0,0.0,2.7583837509155273,-0.662684440612793,0.0,25.5,,,,,,,,,,,,,,,,,,,,,,,,,,,,,,
0.0,-0.40199077129364014,2.7116472721099854,0.006426750682294369,-0.07757747173309326,-0.43432915210723877,0.019779285416007042,-0.3195692002773285,-0.7763312458992004,0.015450002625584602,0.0,2.8238296508789062,-1.2191534042358398,-0.5752531439065933,21.75,0.0,2.912163734436035,-1.2871026992797852,-0.5752531439065933,19.0,0.0,3.116011619567871,-1.21307373046875,-0.3835020959377289,13.0,0.0,2.7812719345092773,-1.0077953338623047,-0.5752531439065933,24.25,0.0,2.6922225952148438,-0.27179718017578125,-0.19175104796886444,22.25,0.0,2.5162696838378906,0.06079673767089844,-0.5752531439065933,26.0,0.0,2.375364303588867,0.11658668518066406,-0.5752531439065933,20.0,0.0,2.4383068084716797,0.11444091796875,-0.5752531439065933,26.25,,,,,,,,,,,,,,,,,,,,,,,,,,,,,,
0.0,-0.47591453790664673,2.6654441356658936,0.0065928297117352486,-0.21215388178825378,-0.4976230263710022,0.019425760954618454,-0.4034736156463623,-0.7484613656997681,0.014545595273375511,0.0,2.58636474609375,-1.580357551574707,-0.3835020959377289,19.25,0.0,2.590298652648926,-1.3350248336791992,-0.3835020959377289,22.25,0.0,2.931833267211914,-1.260995864868164,-0.3835020959377289,13.5,0.0,2.5162696838378906,-0.800013542175293,-0.19175104796886444,19.75,0.0,2.621769905090332,-0.8922815322875977,-0.19175104796886444,21.5,0.0,2.341032028198242,0.14698505401611328,-0.5752531439065933,14.75,0.0,2.400040626525879,0.23746490478515625,-0.5752531439065933,19.75,0.0,2.737283706665039,-0.9019374847412109,0.0,24.75,,,,,,,,,,,,,,,,,,,,,,,,,,,,,,
0.0,-0.46640413999557495,2.5975563526153564,0.006554253865033388,-0.1921098530292511,-0.6228606700897217,0.018726926296949387,-0.34698235988616943,-0.8282002806663513,0.013474790379405022,0.0,2.6460886001586914,-1.8224716186523438,-0.7670041918754578,16.25,0.0,2.7076005935668945,-1.408696174621582,-0.7670041918754578,18.0,0.0,2.691507339477539,-1.1011362075805664,-0.7670041918754578,21.75,0.0,2.6482343673706055,-0.8171796798706055,-0.7670041918754578,22.0,0.0,2.492666244506836,-0.037550926208496094,-0.7670041918754578,23.0,0.0,2.309560775756836,0.17595291137695312,-0.7670041918754578,22.0,0.0,2.382516860961914,0.08547306060791016,-0.7670041918754578,25.0,0.0,2.458333969116211,0.11444091796875,0.0,27.5,,,,,,,,,,,,,,,,,,,,,,,,,,,,,,
0.0,-0.608342170715332,2.512615442276001,0.0070284646935760975,-0.4141411781311035,-0.7582404017448425,0.018569685518741608,-0.49262291193008423,-0.8980826735496521,0.012720341794192791,0.0,2.2748708724975586,-1.6661882400512695,-0.7670041918754578,18.25,0.0,2.316713333129883,-1.3936758041381836,-0.7670041918754578,23.75,0.0,2.400040626525879,-1.0918378829956055,-0.7670041918754578,22.75,0.0,2.725839614868164,-1.3132095336914062,-0.9587552398443222,13.0,0.0,2.4003982543945312,-0.5968809127807617,-0.7670041918754578,18.0,0.0,2.159714698791504,0.3973245620727539,-0.7670041918754578,14.25,,,,,,,,,,,,,,,,,,,,,,,,,,,,,,,,,,,,,,,,
0.0,-0.7266924977302551,2.40405011177063,0.006408505607396364,-0.5687347054481506,-0.9242823123931885,0.01719716377556324,-0.564640998840332,-1.0024062395095825,0.011385712772607803,0.0,2.51162052154541,-1.6704797744750977,0.19175104796886444,14.25,0.0,2.450108528137207,-1.4251470565795898,-1.342257335782051,17.25,0.0,2.260923385620117,-1.0535717010498047,-1.1505062878131866,24.25,0.0,2.318143844604492,-1.1283159255981445,-0.9587552398443222,26.75,0.0,2.376437187194824,-1.2177228927612305,-0.9587552398443222,22.75,0.0,2.094268798828125,-0.03933906555175781,-0.7670041918754578,14.75,0.0,2.143263816833496,-0.055789947509765625,-0.7670041918754578,21.75,,,,,,,,,,,,,,,,,,,,,,,,,,,,,,,,,,,
0.0,-0.9213191270828247,2.2904887199401855,0.0062450990080833435,-0.8407829999923706,-1.064976692199707,0.01635785773396492,-0.7364600896835327,-1.0463184118270874,0.010398938320577145,0.0,2.481222152709961,-1.7452239990234375,-0.19175104796886444,13.25,0.0,2.1064281463623047,-1.1805295944213867,-0.9587552398443222,23.75,0.0,2.2040605545043945,-1.2602806091308594,-0.9587552398443222,21.5,0.0,2.3016929626464844,-1.4154911041259766,-0.9587552398443222,16.75,0.0,2.4279356002807617,-1.5184879302978516,-0.19175104796886444,16.5,0.0,2.0928382873535156,-0.6830692291259766,-0.5752531439065933,21.0,0.0,2.5867223739624023,-1.6783475875854492,0.0,18.5,0.0,2.676844596862793,-1.7910003662109375,0.0,18.25,0.0,2.8220415115356445,-1.8171072006225586,0.0,13.75,,,,,,,,,,,,,,,,,,,,,,,,,
0.0,-1.0492579936981201,2.15472149848938,0.006041120737791061,-0.9592268466949463,-1.2326970100402832,0.015395594760775566,-0.7550182342529297,-1.131631851196289,0.009365454316139221,0.0,2.091050148010254,-1.386880874633789,-0.9587552398443222,20.25,0.0,2.226591110229492,-1.4694929122924805,-0.5752531439065933,16.25,0.0,2.3807287216186523,-1.5649795532226562,-0.19175104796886444,13.0,0.0,2.029538154602051,-1.2187957763671875,-0.9587552398443222,24.75,0.0,1.9952058792114258,-0.9866952896118164,-0.9587552398443222,24.5,0.0,1.9057989120483398,-0.8071660995483398,-1.1505062878131866,13.25,0.0,2.58636474609375,-1.6307830810546875,0.0,17.25,0.0,2.5860071182250977,-1.2881755828857422,0.0,18.75,,,,,,,,,,,,,,,,,,,,,,,,,,,,,,
0.0,-1.129150390625,1.9767245054244995,0.0058184294030070305,-0.9723778367042542,-1.4398913383483887,0.014324638992547989,-0.6750972270965576,-1.2504305839538574,0.008289569057524204,0.0,1.8256902694702148,-1.4144182205200195,-0.9587552398443222,22.0,0.0,1.9057989120483398,-1.5631914138793945,-0.9587552398443222,16.0,0.0,1.5882253646850586,-0.8869171142578125,-1.9175104796886444,13.75,0.0,1.6268491744995117,-0.9577274322509766,-0.5752531439065933,21.5,0.0,1.6787052154541016,-1.0213851928710938,-0.9587552398443222,23.0,0.0,1.7756223678588867,-1.1311769485473633,-0.9587552398443222,26.75,0.0,2.60317325592041,-1.5692710876464844,0.0,15.5,0.0,2.74658203125,-1.6611814498901367,0.0,13.75,0.0,2.415776252746582,-1.2763738632202148,0.0,17.75,0.0,2.542734146118164,-1.3539791107177734,0.0,18.0,,,,,,,,,,,,,,,,,,,,
0.0,-1.2876945734024048,1.7859054803848267,0.00591444643214345,-1.184948205947876,-1.59831964969635,0.013681741431355476,-0.8312922120094299,-1.2447926998138428,0.007541294675320387,0.0,1.4673471450805664,-1.2624263763427734,-0.19175104796886444,16.25,0.0,1.6247034072875977,-1.3704299926757812,-0.3835020959377289,20.0,0.0,1.8124580383300781,-1.395106315612793,-0.9587552398443222,13.25,0.0,1.4265775680541992,-0.973820686340332,0.19175104796886444,18.0,0.0,1.4548301696777344,-1.033186912536621,-0.19175104796886444,19.0,0.0,2.4576187133789062,-1.1951923370361328,0.0,17.75,0.0,2.539515495300293,-1.3539791107177734,0.0,18.0,0.0,2.827763557434082,-1.502394676208496,0.0,12.75,,,,,,,,,,,,,,,,,,,,,,,,,,,,,,
0.0,-1.3821916580200195,1.6282414197921753,0.005748338997364044,-1.243239402770996,-1.689788579940796,0.012748941779136658,-0.8280006051063538,-1.198400616645813,0.006674850359559059,0.0,1.429438591003418,-1.0796785354614258,-0.3835020959377289,14.0,0.0,1.4623403549194336,-1.1737346649169922,-0.3835020959377289,19.0,0.0,1.5392303466796875,-1.2570619583129883,-0.3835020959377289,20.25,0.0,1.6883611679077148,-1.2531280517578125,-0.3835020959377289,22.5,0.0,1.878976821899414,-1.2366771697998047,-0.3835020959377289,14.0,0.0,2.469778060913086,-1.147627830505371,0.0,18.0,0.0,2.5388002395629883,-1.2760162353515625,0.0,17.0,,,,,,,,,,,,,,,,,,,,,,,,,,,,,,,,,,,
0.0,0.08477175980806351,2.6622040271759033,0.0464935265481472,-0.021355994045734406,-0.6706716418266296,-0.011712809093296528,0.0,0.0,0.0,0.0,2.8377771377563477,-1.1343955993652344,-0.7670041918754578,21.0,0.0,2.9436349868774414,-1.1973381042480469,-0.5752531439065933,15.5,0.0,2.788066864013672,-0.9691715240478516,-0.7670041918754578,22.0,0.0,2.726912498474121,-0.15163421630859375,-0.9587552398443222,20.75,0.0,2.5463104248046875,-0.013589859008789062,-0.9587552398443222,14.75,0.0,2.624630928039551,0.045418739318847656,-0.9587552398443222,20.75,0.0,3.0698776245117188,-1.5517473220825195,0.0,19.75,0.0,3.1142234802246094,-1.6679763793945312,0.0,16.25,0.0,3.1310319900512695,-1.028895378112793,0.0,21.25,0.0,3.016948699951172,-0.030040740966796875,0.0,23.75,,,,,,,,,,,,,,,,,,,,
0.0,0.07422008365392685,2.5865914821624756,0.0441245473921299,-0.1060272678732872,-0.7589262127876282,-0.023789241909980774,-0.010209735482931137,-0.05601973459124565,-0.0019890828989446163,0.0,2.7877092361450195,-1.2892484664916992,-0.7670041918754578,25.25,0.0,2.7855634689331055,-1.4401674270629883,-0.7670041918754578,19.0,0.0,2.7741193771362305,-1.2288093566894531,-0.7670041918754578,25.0,0.0,2.42006778717041,0.032901763916015625,-0.7670041918754578,15.0,0.0,2.5044679641723633,0.041484832763671875,-0.7670041918754578,25.75,0.0,2.5305747985839844,0.08976459503173828,-0.7670041918754578,28.5,0.0,2.5985240936279297,0.21386146545410156,-0.3835020959377289,23.0,0.0,3.083467483520508,-1.4895200729370117,0.0,19.5,0.0,3.120303153991699,-1.6533136367797852,0.0,16.0,0.0,2.9729604721069336,-0.7878541946411133,0.0,23.5,0.0,2.910017967224121,-0.07331371307373047,0.0,26.75,,,,,,,,,,,,,,,
0.0,0.06638502329587936,2.5160789489746094,0.03796752542257309,-0.0925634354352951,-0.732001543045044,-0.04314565658569336,-0.006284003611654043,-0.013515520840883255,-0.0051569389179348946,0.0,2.913951873779297,-1.662611961364746,-1.342257335782051,12.75,0.0,2.6535987854003906,-1.3314485549926758,-0.7670041918754578,24.25,0.0,2.7136802673339844,-1.394033432006836,-1.5340083837509155,23.5,0.0,2.8138160705566406,-1.4634132385253906,-1.72575943171978,17.75,0.0,2.6607513427734375,-0.9287595748901367,-0.7670041918754578,20.5,0.0,2.5767087936401367,0.056862831115722656,-0.5752531439065933,21.0,0.0,2.5162696838378906,0.11730194091796875,-0.5752531439065933,17.25,0.0,3.0655860900878906,-1.490950584411621,0.0,20.0,0.0,3.106355667114258,-1.6679763793945312,0.0,16.25,0.0,3.0487775802612305,-1.1522769927978516,0.0,20.5,,,,,,,,,,,,,,,,,,,,
0.0,0.020529132336378098,2.452157497406006,0.028689086437225342,-0.22075410187244415,-0.6950719952583313,-0.06078946590423584,-0.04421519488096237,0.03450580686330795,-0.009609938599169254,0.0,2.777695655822754,-1.5292167663574219,-0.7670041918754578,12.5,0.0,2.524137496948242,-1.1637210845947266,-0.9587552398443222,24.5,0.0,2.583146095275879,-1.2813806533813477,-0.9587552398443222,22.0,0.0,2.688288688659668,-1.3782978057861328,-0.5752531439065933,17.25,0.0,2.510190010070801,-0.8078813552856445,-0.9587552398443222,19.75,0.0,2.2716522216796875,-0.28717517852783203,-0.5752531439065933,18.0,0.0,2.372860908508301,-0.2396106719970703,-0.5752531439065933,18.5,0.0,3.0666589736938477,-1.488804817199707,0.0,19.25,0.0,3.1578540802001953,-1.57928466796875,0.0,16.0,0.0,2.873539924621582,-1.216292381286621,0.0,22.75,0.0,3.0384063720703125,-1.1841058731079102,0.0,20.25,,,,,,,,,,,,,,,
0.0,-0.08694630861282349,2.384073495864868,0.017707569524645805,-0.4566836357116699,-0.6915316581726074,-0.07491806894540787,-0.1375299096107483,0.019018586724996567,-0.01476851012557745,0.0,2.1904706954956055,-1.5567541122436523,-1.72575943171978,18.25,0.0,2.215147018432617,-1.2974739074707031,-1.5340083837509155,21.75,0.0,2.3850202560424805,-1.5170574188232422,-1.72575943171978,13.0,0.0,2.317070960998535,-0.5282163619995117,-1.342257335782051,22.0,0.0,2.246260643005371,-0.37229061126708984,-1.342257335782051,20.75,0.0,3.085613250732422,-1.3478994369506836,0.0,15.75,,,,,,,,,,,,,,,,,,,,,,,,,,,,,,,,,,,,,,,,
0.0,-0.16548646986484528,2.2786548137664795,0.010846756398677826,-0.5400824546813965,-0.8332457542419434,-0.07499022036790848,-0.15853658318519592,-0.27173683047294617,-0.014789994806051254,0.0,1.9758939743041992,-1.3818740844726562,-0.19175104796886444,23.75,0.0,2.0552873611450195,-1.4694929122924805,-0.19175104796886444,22.5,0.0,2.181529998779297,-1.4863014221191406,-0.19175104796886444,15.25,0.0,1.9855499267578125,-0.9942054748535156,-1.72575943171978,21.75,0.0,3.0258893966674805,-0.8214712142944336,-1.1505062878131866,16.0,0.0,3.1027793884277344,-0.8436441421508789,-1.1505062878131866,14.25,0.0,2.0416975021362305,-1.5982389450073242,0.0,21.0,,,,,,,,,,,,,,,,,,,,,,,,,,,,,,,,,,,
0.0,-0.33288687467575073,2.156853437423706,0.005430538207292557,-0.7738222479820251,-1.0147615671157837,-0.0720190480351448,-0.25952860713005066,-0.5904936194419861,-0.011937170289456844,0.0,1.7892122268676758,-1.5352964401245117,-1.72575943171978,22.75,0.0,1.8918514251708984,-1.6143321990966797,-1.72575943171978,17.75,0.0,2.091050148010254,-1.6254186630249023,-1.72575943171978,12.5,0.0,1.679062843322754,-1.076817512512207,-0.7670041918754578,17.75,0.0,1.747727394104004,-1.2366771697998047,-0.7670041918754578,23.0,0.0,1.6536712646484375,-1.0317564010620117,-0.7670041918754578,14.0,0.0,2.7616024017333984,-1.017451286315918,-0.9587552398443222,13.0,0.0,2.8924942016601562,-1.0145902633666992,-0.9587552398443222,12.5,0.0,1.8600225448608398,-1.4934539794921875,0.0,25.0,0.0,2.650022506713867,-1.3003349304199219,0.0,18.25,,,,,,,,,,,,,,,,,,,,
0.0,-0.7224861979484558,2.027846574783325,0.00020122923888266087,-1.3687845468521118,-1.174414038658142,-0.06936444342136383,-0.619744062423706,-0.7841877937316895,-0.009234986267983913,0.0,1.7459392547607422,-1.508474349975586,-1.5340083837509155,17.25,0.0,1.64794921875,-0.925898551940918,0.19175104796886444,18.0,0.0,1.6976594924926758,-0.9344816207885742,-0.19175104796886444,18.25,0.0,1.8585920333862305,-1.5041828155517578,0.0,24.75,0.0,2.6328563690185547,-1.3407468795776367,0.0,19.0,0.0,2.7669668197631836,-1.3725757598876953,0.0,20.25,0.0,2.6253461837768555,0.3132820129394531,0.0,17.5,,,,,,,,,,,,,,,,,,,,,,,,,,,,,,,,,,,
0.0,-0.9407013654708862,1.8818578720092773,-0.004471546038985252,-1.5719597339630127,-1.3129463195800781,-0.06619597971439362,-0.7299799919128418,-0.8594771027565002,-0.006219740491360426,0.0,1.4834403991699219,-1.2634992599487305,0.19175104796886444,13.5,0.0,1.5195608139038086,-1.3310909271240234,0.19175104796886444,17.0,0.0,1.6525983810424805,-1.3557672500610352,-0.5752531439065933,20.5,0.0,1.8693208694458008,-1.326441764831543,-0.3835020959377289,17.5,0.0,1.8274784088134766,-1.5320777893066406,0.0,25.5,0.0,2.039194107055664,-1.5288591384887695,0.0,20.0,0.0,2.6117563247680664,-1.3489723205566406,0.0,17.75,0.0,2.7952194213867188,-1.3089179992675781,0.0,19.0,0.0,2.868175506591797,-1.4004707336425781,0.0,15.75,,,,,,,,,,,,,,,,,,,,,,,,,
0.0,-1.184030294418335,1.7185956239700317,-0.00683721574023366,-1.7940475940704346,-1.4645379781723022,-0.05907866358757019,-0.8603440523147583,-0.9393194913864136,0.0004085949622094631,0.0,2.937912940979004,-1.202702522277832,-0.3835020959377289,20.75,0.0,3.011941909790039,-1.2373924255371094,-0.3835020959377289,21.75,0.0,3.0584335327148438,-1.341104507446289,-0.3835020959377289,15.25,0.0,2.713322639465332,0.05221366882324219,-0.5752531439065933,21.0,0.0,2.7469396591186523,0.0007152557373046875,-0.5752531439065933,25.0,0.0,2.816319465637207,-0.016808509826660156,-0.5752531439065933,21.25,0.0,3.2258033752441406,-1.0389089584350586,0.0,18.25,0.0,3.163576126098633,-0.5021095275878906,0.0,23.5,0.0,2.7523040771484375,0.02682209014892578,0.0,21.25,,,,,,,,,,,,,,,,,,,,,,,,,
0.0,-0.3487789034843445,2.9343857765197754,-0.00038779384340159595,-0.20367348194122314,-0.534392774105072,-0.000857577018905431,-0.42511552572250366,-0.542369544506073,-0.0004594146157614887,0.0,2.9532909393310547,-1.5134811401367188,-0.5752531439065933,14.25,0.0,2.9354095458984375,-1.2760162353515625,-0.5752531439065933,22.25,0.0,2.9364824295043945,-1.044631004333496,-0.5752531439065933,24.5,0.0,2.8946399688720703,-0.5403757095336914,-0.5752531439065933,23.25,0.0,2.773761749267578,-0.2181529998779297,-0.5752531439065933,22.5,0.0,2.6453733444213867,0.0997781753540039,-0.9587552398443222,19.25,0.0,2.510190010070801,0.2778768539428711,-0.7670041918754578,14.5,0.0,2.817392349243164,0.07581710815429688,0.0,28.75,0.0,2.578139305114746,0.17774105072021484,0.0,13.5,0.0,2.7190446853637695,0.10120868682861328,0.0,23.0,,,,,,,,,,,,,,,,,,,,
0.0,-0.4035274386405945,2.8684794902801514,-0.0003593181900214404,-0.29676148295402527,-0.6151047945022583,-0.0007779073785059154,-0.46463921666145325,-0.5778038501739502,-0.0003911439562216401,0.0,2.599954605102539,-2.1125078201293945,-0.7670041918754578,13.0,0.0,2.705097198486328,-1.760244369506836,-0.7670041918754578,17.0,0.0,2.699732780456543,-1.6179084777832031,-0.7670041918754578,20.0,0.0,2.7712583541870117,-0.8622407913208008,-0.9587552398443222,15.75,0.0,2.5881528854370117,-0.17702579498291016,-0.7670041918754578,23.75,0.0,2.636432647705078,-0.23925304412841797,-0.7670041918754578,21.5,0.0,2.5359392166137695,-0.06258487701416016,-0.7670041918754578,18.5,0.0,3.0241012573242188,-1.2613534927368164,0.0,20.5,0.0,2.697587013244629,0.00858306884765625,0.0,24.25,,,,,,,,,,,,,,,,,,,,,,,,,
0.0,-0.3977077305316925,2.777719259262085,-0.0003609915729612112,-0.2797718048095703,-0.719422459602356,-0.0007311723893508315,-0.41050857305526733,-0.6283654570579529,-0.0003438523563090712,0.0,2.7680397033691406,-1.9680261611938477,-0.7670041918754578,12.75,0.0,2.7261972427368164,-1.1179447174072266,-0.9587552398443222,28.25,0.0,2.8116703033447266,-1.0936260223388672,-0.9587552398443222,24.75,0.0,2.9332637786865234,-1.1057853698730469,-0.7670041918754578,16.75,0.0,2.5255680084228516,-0.6247758865356445,-0.7670041918754578,26.0,0.0,2.6546716690063477,-0.7503032684326172,-0.7670041918754578,25.5,0.0,2.4694204330444336,-0.37300586700439453,-0.7670041918754578,22.0,0.0,2.366781234741211,0.07510185241699219,-0.7670041918754578,14.75,0.0,2.359628677368164,0.07474422454833984,-0.7670041918754578,14.75,0.0,3.013014793395996,-1.1408329010009766,0.0,20.25,0.0,2.689361572265625,-0.07224082946777344,0.0,25.0,,,,,,,,,,,,,,,
0.0,-0.5213359594345093,2.6813886165618896,-0.00029524427372962236,-0.4733981788158417,-0.8349860310554504,-0.00061061728047207,-0.5335155129432678,-0.6945659518241882,-0.00025822175666689873,0.0,2.556324005126953,-1.0042190551757812,-0.9587552398443222,16.0,0.0,2.721548080444336,-1.065373420715332,-1.1505062878131866,15.0,0.0,2.832770347595215,-1.225590705871582,-1.1505062878131866,12.5,0.0,2.47800350189209,-0.15735626220703125,-0.9587552398443222,16.25,0.0,2.3163557052612305,0.026106834411621094,-0.9587552398443222,17.5,0.0,2.3603439331054688,0.0654458999633789,-0.9587552398443222,20.0,0.0,3.0072927474975586,-1.1554956436157227,0.0,20.0,0.0,2.6618242263793945,-0.04792213439941406,0.0,25.0,,,,,,,,,,,,,,,,,,,,,,,,,,,,,,
0.0,-0.5269796848297119,2.5830225944519043,-0.00026900004013441503,-0.44389793276786804,-0.941448986530304,-0.0005366986733861268,-0.4574146866798401,-0.7500821948051453,-0.0002023200795520097,0.0,2.5620460510253906,-1.4787912368774414,-1.342257335782051,16.5,0.0,2.597808837890625,-1.5685558319091797,-1.1505062878131866,16.0,0.0,2.5663375854492188,-0.9924173355102539,-0.9587552398443222,15.25,0.0,2.3964643478393555,-0.6530284881591797,-0.7670041918754578,18.5,0.0,2.231597900390625,-0.28395652770996094,-0.7670041918754578,23.5,0.0,2.2923946380615234,-0.3072023391723633,-0.7670041918754578,22.0,0.0,3.0187368392944336,-1.1168718338012695,0.0,19.75,0.0,2.753734588623047,-0.21529197692871094,0.0,27.5,0.0,2.6450157165527344,-0.08082389831542969,0.0,24.75,,,,,,,,,,,,,,,,,,,,,,,,,
0.0,-0.6318451166152954,2.474343776702881,-0.0002429168380331248,-0.5873799324035645,-1.0466923713684082,-0.00046489626402035356,-0.537763774394989,-0.7884515523910522,-0.00015032455848995596,0.0,2.5734901428222656,-1.6497373580932617,-0.19175104796886444,14.75,0.0,2.6618242263793945,-1.7960071563720703,-0.19175104796886444,12.25,0.0,2.2226572036743164,-1.2742280960083008,-1.72575943171978,27.75,0.0,2.2573471069335938,-1.3707876205444336,-1.9175104796886444,21.25,0.0,2.401113510131836,-1.488804817199707,-1.9175104796886444,15.5,0.0,2.191901206970215,-1.028895378112793,-1.72575943171978,27.0,0.0,1.9240379333496094,-0.8518695831298828,-0.9587552398443222,12.5,0.0,2.113938331604004,-0.6601810455322266,-0.9587552398443222,26.0,0.0,2.9894113540649414,-1.1630058288574219,0.0,19.75,,,,,,,,,,,,,,,,,,,,,,,,,
0.0,-0.8602619767189026,2.3100385665893555,-0.00019821844762191176,-0.9032192230224609,-1.2990219593048096,-0.000371550559066236,-0.7351782917976379,-1.025429129600525,-8.678282756591216e-05,0.0,2.1876096725463867,-1.5234947204589844,-0.19175104796886444,17.5,0.0,2.3653507232666016,-1.6100406646728516,-0.19175104796886444,14.0,0.0,2.569913864135742,-1.67083740234375,0.19175104796886444,13.0,0.0,2.1314620971679688,-1.359701156616211,-0.19175104796886444,23.25,0.0,2.0831823348999023,-1.1050701141357422,-1.342257335782051,24.25,0.0,1.9376277923583984,-0.7549524307250977,-2.109261527657509,15.0,0.0,2.0188093185424805,-0.8203983306884766,-1.342257335782051,25.5,0.0,2.8803348541259766,-1.3346672058105469,0.0,17.25,,,,,,,,,,,,,,,,,,,,,,,,,,,,,,
0.0,-1.0358877182006836,2.1658496856689453,-0.0001727845228742808,-1.1226361989974976,-1.4289615154266357,-0.00030549935763701797,-0.8617478013038635,-1.056244969367981,-4.3515294237295166e-05,0.0,1.9040107727050781,-1.4462471008300781,-0.9587552398443222,23.75,0.0,1.9437074661254883,-1.5281438827514648,-0.9587552398443222,18.0,0.0,1.6504526138305664,-1.136183738708496,0.19175104796886444,15.25,0.0,1.7777681350708008,-1.330733299255371,0.19175104796886444,21.0,0.0,1.614689826965332,-0.9924173355102539,0.19175104796886444,13.5,,,,,,,,,,,,,,,,,,,,,,,,,,,,,,,,,,,,,,,,,,,,,
0.0,-1.227015495300293,1.9829550981521606,-0.00016306823818013072,-1.3663673400878906,-1.578311562538147,-0.00026052031898871064,-1.016526222229004,-1.0789084434509277,-1.4626924894400872e-05,0.0,1.7595291137695312,-1.4133453369140625,-0.5752531439065933,18.5,0.0,1.8407106399536133,-1.6336441040039062,-0.19175104796886444,12.5,0.0,1.7015933990478516,-1.1980533599853516,-0.9587552398443222,25.0,0.0,1.6783475875854492,-0.9105205535888672,-0.3835020959377289,23.25,0.0,1.6962289810180664,-0.9888410568237305,-0.7670041918754578,24.5,0.0,1.6297101974487305,-0.8769035339355469,-0.3835020959377289,14.0,0.0,2.8749704360961914,-1.3257265090942383,0.0,16.0,,,,,,,,,,,,,,,,,,,,,,,,,,,,,,,,,,,
0.0,-1.3023090362548828,1.8177433013916016,-0.00014101443230174482,-1.3472939729690552,-1.6739107370376587,-0.00020186061738058925,-0.9095358848571777,-1.0620452165603638,2.0930989194312133e-05,0.0,2.743363380432129,-1.8900632858276367,-0.5752531439065933,18.0,0.0,2.8524398803710938,-1.8410682678222656,-0.9587552398443222,17.25,0.0,2.9250383377075195,-0.9273290634155273,-0.5752531439065933,14.75,0.0,2.731919288635254,-0.6805658340454102,-0.5752531439065933,20.25,0.0,2.6410818099975586,-0.2589225769042969,-0.7670041918754578,25.75,0.0,2.588510513305664,-0.10585784912109375,-0.9587552398443222,28.25,0.0,2.55739688873291,-0.08082389831542969,-0.9587552398443222,23.0,,,,,,,,,,,,,,,,,,,,,,,,,,,,,,,,,,,
0.0,-0.45378053188323975,2.729619026184082,0.00727024907246232,-0.5307607650756836,-0.6435487866401672,0.018177784979343414,-0.41857659816741943,-0.5198521614074707,0.010670656338334084,0.0,2.86710262298584,-1.3811588287353516,-0.5752531439065933,13.5,0.0,2.8281211853027344,-1.1050701141357422,-0.9587552398443222,18.75,0.0,2.7812719345092773,-0.8314847946166992,-0.9587552398443222,22.75,0.0,2.668619155883789,-0.6823539733886719,-0.7670041918754578,22.75,0.0,2.5631189346313477,-0.3447532653808594,-0.7670041918754578,22.25,0.0,2.451181411743164,-0.1691579818725586,-0.9587552398443222,20.0,0.0,2.3235082626342773,0.12552738189697266,-0.7670041918754578,16.0,,,,,,,,,,,,,,,,,,,,,,,,,,,,,,,,,,,
0.0,-0.5163180828094482,2.645381212234497,0.006596951745450497,-0.5631012320518494,-0.7707374095916748,0.016580455005168915,-0.3952016234397888,-0.643603503704071,0.009310767985880375,0.0,2.5756359100341797,-1.0714530944824219,-1.342257335782051,26.25,0.0,2.641439437866211,-1.0474920272827148,-1.342257335782051,23.25,0.0,2.7472972869873047,-1.135110855102539,-1.342257335782051,15.25,0.0,2.479434013366699,-0.8261203765869141,-1.1505062878131866,20.25,0.0,2.3413896560668945,-0.07903575897216797,-1.1505062878131866,25.25,0.0,2.3142099380493164,-0.07295608520507812,-1.1505062878131866,23.5,0.0,2.9550790786743164,-0.9881258010864258,0.0,18.75,,,,,,,,,,,,,,,,,,,,,,,,,,,,,,,,,,,
0.0,-0.562255322933197,2.5306460857391357,0.006242305506020784,-0.5381017327308655,-0.9674732685089111,0.015255031175911427,-0.30943894386291504,-0.8615819811820984,0.008102542720735073,0.0,2.5080442428588867,-1.3926029205322266,-1.5340083837509155,17.5,0.0,2.628922462463379,-1.4559030532836914,-0.19175104796886444,15.0,0.0,2.414703369140625,-1.272439956665039,-1.5340083837509155,19.75,0.0,2.324223518371582,-0.9906291961669922,-1.5340083837509155,22.75,0.0,2.155423164367676,-0.7292032241821289,-1.1505062878131866,25.75,0.0,2.2205114364624023,-0.7799863815307617,-1.72575943171978,26.5,,,,,,,,,,,,,,,,,,,,,,,,,,,,,,,,,,,,,,,,
0.0,-0.720085084438324,2.382260799407959,0.005788187030702829,-0.7047659158706665,-1.2033164501190186,0.013859722763299942,-0.38828781247138977,-1.0804028511047363,0.006916732061654329,0.0,2.2891759872436523,-1.35040283203125,-2.3010125756263733,19.0,0.0,2.3707151412963867,-1.4852285385131836,-2.3010125756263733,14.0,0.0,1.8771886825561523,-0.8922815322875977,-0.3835020959377289,16.5,0.0,1.9508600234985352,-0.9137392044067383,-1.1505062878131866,26.25,0.0,2.1282434463500977,-1.0639429092407227,-2.3010125756263733,23.0,0.0,2.2630691528320312,-1.222372055053711,-2.3010125756263733,24.5,,,,,,,,,,,,,,,,,,,,,,,,,,,,,,,,,,,,,,,,
0.0,-0.8480398654937744,2.205862045288086,0.005283573176711798,-0.7790753245353699,-1.4674952030181885,0.01237955316901207,-0.3680354058742523,-1.3143242597579956,0.005724648479372263,0.0,3.155350685119629,-1.1848211288452148,-0.19175104796886444,16.5,0.0,3.039121627807617,-0.9205341339111328,-0.3835020959377289,20.25,0.0,3.122091293334961,-0.9766817092895508,-0.3835020959377289,20.0,0.0,2.680063247680664,0.06937980651855469,-0.5752531439065933,22.5,0.0,2.696514129638672,0.03790855407714844,-0.5752531439065933,24.25,0.0,2.5888681411743164,0.1863241195678711,-0.5752531439065933,12.25,0.0,2.8002262115478516,0.09548664093017578,-0.3835020959377289,17.75,0.0,2.829909324645996,0.010371208190917969,0.0,28.5,0.0,2.8721094131469727,-0.01823902130126953,0.0,29.5,0.0,2.974390983581543,-0.04076957702636719,0.0,23.25,,,,,,,,,,,,,,,,,,,,
0.0,-0.1738462746143341,2.856135845184326,0.006973350886255503,-0.1981736719608307,-0.42315882444381714,0.014133857563138008,-0.3811158537864685,-0.2590514123439789,0.007655849680304527,0.0,2.9668807983398438,-1.3822317123413086,-0.5752531439065933,16.75,0.0,3.025174140930176,-1.5213489532470703,-0.5752531439065933,15.25,0.0,2.959012985229492,-1.1276006698608398,-0.3835020959377289,19.0,0.0,2.6378631591796875,0.06759166717529297,-0.5752531439065933,25.5,0.0,2.560257911682129,0.1913309097290039,-0.7670041918754578,19.5,0.0,2.6210546493530273,0.09906291961669922,-0.5752531439065933,26.5,0.0,2.7877092361450195,0.12123584747314453,-0.5752531439065933,15.25,0.0,2.8477907180786133,-0.006794929504394531,0.0,28.75,0.0,2.9801130294799805,-0.02968311309814453,0.0,22.0,,,,,,,,,,,,,,,,,,,,,,,,,
0.0,-0.15657205879688263,2.79502010345459,0.006737704388797283,-0.17408493161201477,-0.4879269599914551,0.013274301774799824,-0.33130303025245667,-0.311388224363327,0.006875275168567896,0.0,2.6972293853759766,-1.295328140258789,-0.5752531439065933,16.5,0.0,3.051280975341797,-1.394033432006836,-0.7670041918754578,18.5,0.0,3.013014793395996,-1.0546445846557617,-0.7670041918754578,22.25,0.0,3.074169158935547,-1.0567903518676758,-0.7670041918754578,21.0,0.0,2.5670528411865234,0.0768899917602539,-0.5752531439065933,25.25,0.0,2.588510513305664,0.08118152618408203,-0.5752531439065933,31.0,0.0,2.5953054428100586,0.11301040649414062,-0.5752531439065933,28.0,0.0,2.966165542602539,-0.8965730667114258,0.0,20.75,0.0,2.6553869247436523,0.07224082946777344,0.0,30.0,0.0,2.5856494903564453,0.08797645568847656,0.0,22.25,,,,,,,,,,,,,,,,,,,,
0.0,-0.19050654768943787,2.7408108711242676,0.006377687677741051,-0.2265465408563614,-0.5468232035636902,0.012318160384893417,-0.3442396819591522,-0.3609662353992462,0.006081372499465942,0.0,2.845644950866699,-1.0231733322143555,-0.7670041918754578,21.75,0.0,2.992987632751465,-1.033186912536621,-0.9587552398443222,14.5,0.0,2.6553869247436523,-0.605463981628418,-1.342257335782051,27.75,0.0,2.7637481689453125,-0.7957220077514648,-0.7670041918754578,25.5,0.0,2.582430839538574,-0.5339384078979492,-1.1505062878131866,27.25,0.0,2.5055408477783203,0.011086463928222656,-0.7670041918754578,21.0,0.0,2.35748291015625,0.21958351135253906,-0.7670041918754578,14.5,0.0,2.5702714920043945,0.1087188720703125,0.0,22.5,,,,,,,,,,,,,,,,,,,,,,,,,,,,,,
0.0,-0.3095378577709198,2.6554009914398193,0.005481390282511711,-0.3947029113769531,-0.706768810749054,0.010825183242559433,-0.43903815746307373,-0.5664119124412537,0.005017375573515892,0.0,2.8842687606811523,-1.0532140731811523,-1.1505062878131866,15.0,0.0,2.7877092361450195,-0.7649660110473633,-1.1505062878131866,17.5,0.0,2.454400062561035,-0.4062652587890625,-1.1505062878131866,18.75,0.0,2.5205612182617188,-0.5292892456054688,-1.1505062878131866,21.25,0.0,2.648591995239258,-0.5156993865966797,-1.1505062878131866,19.75,0.0,2.329230308532715,0.1291036605834961,-0.9587552398443222,12.75,,,,,,,,,,,,,,,,,,,,,,,,,,,,,,,,,,,,,,,,
0.0,-0.36953237652778625,2.5598151683807373,0.004979381803423166,-0.44241881370544434,-0.8678972125053406,0.009738369844853878,-0.42454636096954346,-0.7444138526916504,0.004200597759336233,0.0,2.528071403503418,-1.010298728942871,-0.9587552398443222,20.5,0.0,2.6972293853759766,-1.1687278747558594,-1.5340083837509155,21.0,0.0,2.777695655822754,-1.2456178665161133,-0.19175104796886444,19.0,0.0,2.8917789459228516,-1.2896060943603516,-0.19175104796886444,14.25,0.0,2.408623695373535,-0.5747079849243164,-0.9587552398443222,24.5,0.0,2.3603439331054688,-0.42951107025146484,-1.342257335782051,27.25,0.0,2.3363828659057617,-0.2589225769042969,-1.342257335782051,22.5,0.0,2.6814937591552734,0.030755996704101562,0.0,30.25,0.0,2.7959346771240234,-0.080108642578125,0.0,23.25,,,,,,,,,,,,,,,,,,,,,,,,,
0.0,-0.5173051953315735,2.4685070514678955,0.004300669301301241,-0.6341112852096558,-0.9956364035606384,0.008515077643096447,-0.5327368378639221,-0.844389796257019,0.003367951139807701,0.0,2.341747283935547,-1.283884048461914,-1.342257335782051,21.0,0.0,2.462625503540039,-1.3786554336547852,-1.342257335782051,18.5,0.0,2.63822078704834,-1.429438591003418,-0.19175104796886444,14.25,0.0,2.2695064544677734,-1.1501312255859375,-0.3835020959377289,26.75,0.0,2.248048782348633,-0.9126663208007812,-0.3835020959377289,28.0,0.0,2.1976232528686523,-0.42808055877685547,-0.9587552398443222,25.25,0.0,2.115011215209961,-0.2027750015258789,-0.9587552398443222,13.25,,,,,,,,,,,,,,,,,,,,,,,,,,,,,,,,,,,
0.0,-0.7087588310241699,2.3580000400543213,0.0038381684571504593,-0.9013335704803467,-1.09983229637146,0.00749206030741334,-0.7092099189758301,-0.8650826811790466,0.0026729200035333633,0.0,2.3195743560791016,-1.5921592712402344,-0.19175104796886444,12.25,0.0,2.202630043029785,-1.2291669845581055,-0.3835020959377289,22.75,0.0,2.2519826889038086,-1.362919807434082,-0.3835020959377289,17.5,0.0,2.099275588989258,-1.0710954666137695,-1.342257335782051,26.75,0.0,1.8532276153564453,-0.7041692733764648,-1.72575943171978,16.0,0.0,1.8711090087890625,-0.7363557815551758,-1.72575943171978,22.75,0.0,1.9494295120239258,-0.8379220962524414,-1.72575943171978,28.75,0.0,2.7930736541748047,-1.2731552124023438,0.0,16.0,0.0,3.0881166458129883,-1.0149478912353516,0.0,14.5,,,,,,,,,,,,,,,,,,,,,,,,,
0.0,-0.8285729289054871,2.2008702754974365,0.0034730276092886925,-0.9670708775520325,-1.304221510887146,0.00651208870112896,-0.6657941341400146,-1.0440291166305542,0.001983986236155033,0.0,1.9551515579223633,-1.2903213500976562,0.19175104796886444,25.0,0.0,2.0481348037719727,-1.432657241821289,0.19175104796886444,18.5,0.0,2.1418333053588867,-1.5388727188110352,-0.19175104796886444,14.5,0.0,1.6633272171020508,-0.9977817535400391,-0.9587552398443222,12.75,0.0,1.748800277709961,-1.050710678100586,0.9587552398443222,18.0,0.0,1.8578767776489258,-1.1250972747802734,0.19175104796886444,26.75,0.0,2.75266170501709,-1.3017654418945312,0.0,15.5,0.0,2.670764923095703,-1.0135173797607422,0.0,15.75,0.0,3.025174140930176,-1.0553598403930664,0.0,12.25,,,,,,,,,,,,,,,,,,,,,,,,,
0.0,-1.091007947921753,2.0417847633361816,0.0032732742838561535,-1.3859283924102783,-1.4089138507843018,0.005770399235188961,-1.0130826234817505,-0.9834738969802856,0.001498836325481534,0.0,1.7867088317871094,-1.3840198516845703,-0.19175104796886444,20.75,0.0,1.943349838256836,-1.5091896057128906,-0.19175104796886444,14.25,0.0,1.5374422073364258,-1.1494159698486328,-0.19175104796886444,18.5,0.0,1.6279220581054688,-1.2202262878417969,-0.19175104796886444,22.75,0.0,1.7237663269042969,-1.257777214050293,0.19175104796886444,27.25,0.0,2.6761293411254883,-1.0088682174682617,0.0,17.0,0.0,2.7669668197631836,-1.250624656677246,0.0,15.5,0.0,3.0444860458374023,-1.0124444961547852,0.0,12.0,,,,,,,,,,,,,,,,,,,,,,,,,,,,,,
0.0,-1.2887459993362427,1.8690932989120483,0.0031656080391258,-1.612965703010559,-1.5364727973937988,0.0051152678206563,-1.141154408454895,-0.9939606785774231,0.0010612034238874912,0.0,1.4444589614868164,-1.1976957321166992,-0.19175104796886444,18.0,0.0,1.535654067993164,-1.2917518615722656,-0.19175104796886444,19.5,0.0,1.71661376953125,-1.2981891632080078,-1.1505062878131866,23.25,0.0,1.947641372680664,-1.4863014221191406,-1.342257335782051,13.5,0.0,1.8553733825683594,-1.3521909713745117,-1.1505062878131866,18.25,0.0,2.7784109115600586,-1.227736473083496,0.0,15.0,,,,,,,,,,,,,,,,,,,,,,,,,,,,,,,,,,,,,,,,
0.0,-1.3661415576934814,1.7226239442825317,0.0029053008183836937,-1.5144901275634766,-1.6254053115844727,0.0043019396252930164,-0.9165326356887817,-1.0110971927642822,0.0005489018512889743,0.0,1.6086101531982422,-1.3214349746704102,-0.7670041918754578,21.75,0.0,1.978754997253418,-1.132965087890625,-0.5752531439065933,15.0,,,,,,,,,,,,,,,,,,,,,,,,,,,,,,,,,,,,,,,,,,,,,,,,,,,,,,,,,,,,
0.0,-1.4666718244552612,1.5824155807495117,0.0029701723251491785,-1.4914274215698242,-1.67894446849823,0.003933119587600231,-0.8047894835472107,-0.9705378413200378,0.0003200064820703119,0.0,1.3850927352905273,-1.1014938354492188,-0.19175104796886444,15.0,0.0,1.4848709106445312,-1.152634620666504,-0.19175104796886444,19.0,0.0,1.543879508972168,-1.232743263244629,-0.19175104796886444,20.5,0.0,1.6525983810424805,-1.2388229370117188,-0.19175104796886444,20.0,,,,,,,,,,,,,,,,,,,,,,,,,,,,,,,,,,,,,,,,,,,,,,,,,,
0.0,-1.5178167819976807,1.464257836341858,0.0026221927255392075,-1.4020087718963623,-1.6606422662734985,0.003092715283855796,-0.665771484375,-0.8512568473815918,-0.00014650635421276093,0.0,1.4727115631103516,-1.3039112091064453,0.19175104796886444,13.75,0.0,1.750946044921875,-1.289963722229004,0.19175104796886444,14.5,0.0,1.9540786743164062,-1.2835264205932617,0.19175104796886444,12.75,0.0,2.203702926635742,-1.3071298599243164,0.0,20.0,0.0,2.3467540740966797,-1.2649297714233398,0.0,18.5,,,,,,,,,,,,,,,,,,,,,,,,,,,,,,,,,,,,,,,,,,,,,
0.0,-1.6100577116012573,1.3763705492019653,0.0023820712231099606,-1.409889817237854,-1.586857795715332,0.0024745152331888676,-0.6419550180435181,-0.6833878755569458,-0.00045319925993680954,0.0,3.1517744064331055,-0.7864236831665039,-0.3835020959377289,18.0,0.0,3.3295154571533203,-0.9130239486694336,-0.19175104796886444,16.0,0.0,3.035902976989746,-0.2281665802001953,-0.7670041918754578,21.5,0.0,2.9397010803222656,-0.040411949157714844,-0.7670041918754578,22.0,0.0,2.8363466262817383,0.24640560150146484,-0.5752531439065933,20.0,,,,,,,,,,,,,,,,,,,,,,,,,,,,,,,,,,,,,,,,,,,,,
0.0,-1.4495606422424316,3.462578535079956,0.007662189658731222,0.6456498503684998,0.02897992730140686,-0.00584331015124917,0.45218145847320557,-0.030500581488013268,-0.002601037500426173,0.0,3.228306770324707,-1.5020370483398438,-0.5752531439065933,12.75,0.0,3.257632255554199,-1.019597053527832,-0.7670041918754578,15.75,0.0,3.13568115234375,-0.80108642578125,-0.7670041918754578,19.0,0.0,2.994418144226074,-0.4971027374267578,-0.7670041918754578,22.5,0.0,2.887845039367676,-0.2614259719848633,-0.7670041918754578,25.75,0.0,2.820253372192383,0.04506111145019531,-0.7670041918754578,25.0,0.0,2.740144729614258,0.18525123596191406,-0.7670041918754578,18.5,0.0,3.51870059967041,-0.870823860168457,0.0,18.5,,,,,,,,,,,,,,,,,,,,,,,,,,,,,,
0.0,-1.3587771654129028,3.4105851650238037,0.006594820413738489,0.7677508592605591,-0.04909064620733261,-0.006785347126424313,0.5398142337799072,-0.10239841043949127,-0.0030237524770200253,0.0,3.048419952392578,-1.0095834732055664,-0.9587552398443222,15.0,0.0,2.8856992721557617,-0.8118152618408203,-1.1505062878131866,20.0,0.0,2.82132625579834,-0.34117698669433594,-1.1505062878131866,25.25,0.0,2.739429473876953,-0.16772747039794922,-1.1505062878131866,21.0,0.0,2.777695655822754,-0.22923946380615234,-1.1505062878131866,26.75,0.0,3.3098459243774414,-0.9884834289550781,0.0,18.0,0.0,3.1871795654296875,-0.11408329010009766,0.0,25.5,,,,,,,,,,,,,,,,,,,,,,,,,,,,,,,,,,,
0.0,-1.2880685329437256,3.353585958480835,0.006030076649039984,0.8624045848846436,-0.13508230447769165,-0.0072856806218624115,0.6077989935874939,-0.18022498488426208,-0.003249033819884062,0.0,2.8874874114990234,-1.3282299041748047,-1.5340083837509155,14.0,0.0,2.8606653213500977,-1.1483430862426758,-1.5340083837509155,21.75,0.0,2.7687549591064453,-0.36728382110595703,-0.9587552398443222,20.75,0.0,2.635359764099121,-0.1283884048461914,-0.9587552398443222,30.0,0.0,2.6464462280273438,-0.19991397857666016,-0.9587552398443222,29.5,0.0,2.5835037231445312,-0.02396106719970703,-0.9587552398443222,22.25,0.0,3.322720527648926,-1.0067224502563477,0.0,17.0,0.0,3.514409065246582,-0.857234001159668,0.0,18.25,0.0,3.170013427734375,-0.05793571472167969,0.0,20.5,,,,,,,,,,,,,,,,,,,,,,,,,
0.0,-1.2649487257003784,3.2894911766052246,0.005534464027732611,0.8957816362380981,-0.2370835393667221,-0.007708206307142973,0.6354398131370544,-0.27332574129104614,-0.003435085993260145,0.0,1.6869306564331055,-1.347184181213379,-0.19175104796886444,20.25,0.0,2.8885602951049805,-1.4008283615112305,-0.3835020959377289,17.5,0.0,2.990126609802246,-1.6046762466430664,-0.3835020959377289,14.0,0.0,2.676844596862793,-1.1243820190429688,-1.5340083837509155,21.5,0.0,2.781987190246582,-1.248478889465332,-1.5340083837509155,19.5,0.0,2.601027488708496,-0.9208917617797852,-1.9175104796886444,25.75,0.0,2.5513172149658203,-0.42879581451416016,-1.9175104796886444,25.75,0.0,2.462625503540039,-0.1462697982788086,-1.342257335782051,24.5,0.0,1.6508102416992188,-1.4258623123168945,0.0,22.25,0.0,3.080606460571289,-1.0617971420288086,0.0,19.25,0.0,3.237605094909668,-1.0993480682373047,0.0,18.0,0.0,3.4564733505249023,-0.9959936141967773,0.0,16.5,,,,,,,,,,
0.0,-1.2537493705749512,3.172541856765747,0.004699846729636192,0.9156633615493774,-0.4119504690170288,-0.008414151147007942,0.6561170816421509,-0.4233524799346924,-0.003742278553545475,0.0,2.463698387145996,-1.1980533599853516,-1.72575943171978,25.25,0.0,2.5305747985839844,-1.3167858123779297,-1.9175104796886444,20.25,0.0,2.6532411575317383,-1.372218132019043,-0.19175104796886444,15.25,0.0,2.1561384201049805,-0.8171796798706055,-2.3010125756263733,23.0,0.0,2.387523651123047,-0.9437799453735352,-0.19175104796886444,26.25,0.0,2.2870302200317383,-0.7810592651367188,-2.3010125756263733,26.25,0.0,1.7216205596923828,-1.3550519943237305,0.0,22.5,0.0,3.0519962310791016,-1.1172294616699219,0.0,18.5,0.0,3.261566162109375,-1.0793209075927734,0.0,17.5,0.0,3.4607648849487305,-1.0203123092651367,0.0,17.0,,,,,,,,,,,,,,,,,,,,
0.0,-1.2539700269699097,3.078087329864502,0.004119429737329483,0.914577305316925,-0.5091732144355774,-0.008933060802519321,0.6518303751945496,-0.47265684604644775,-0.003971640486270189,0.0,2.3088455200195312,-1.3332366943359375,-0.3835020959377289,20.75,0.0,2.36356258392334,-1.5088319778442383,-1.1505062878131866,13.0,0.0,2.0145177841186523,-1.0160207748413086,-1.1505062878131866,26.25,0.0,2.127528190612793,-1.0213851928710938,-1.1505062878131866,26.75,0.0,2.2716522216796875,-1.0796785354614258,-1.1505062878131866,24.75,0.0,3.0301809310913086,-1.1301040649414062,0.0,18.5,0.0,3.163576126098633,-1.2019872665405273,0.0,15.25,,,,,,,,,,,,,,,,,,,,,,,,,,,,,,,,,,,
0.0,-1.2690272331237793,3.004697799682617,0.003697362495586276,0.8904951810836792,-0.5596067309379578,-0.009333455003798008,0.6265414357185364,-0.4693920910358429,-0.0041538430377841,0.0,1.8668174743652344,-1.2023448944091797,-0.19175104796886444,29.0,0.0,1.8503665924072266,-1.039266586303711,0.5752531439065933,17.0,0.0,1.965165138244629,-1.2413263320922852,-0.19175104796886444,28.25,0.0,2.0760297775268555,-1.2960433959960938,0.19175104796886444,23.5,0.0,2.241969108581543,-1.363992691040039,0.19175104796886444,12.75,0.0,2.993345260620117,-1.198410987854004,0.0,18.0,0.0,3.1228065490722656,-1.2813806533813477,0.0,14.25,,,,,,,,,,,,,,,,,,,,,,,,,,,,,,,,,,,
0.0,-1.2914979457855225,2.953227996826172,0.0033523563761264086,0.8487396836280823,-0.5574033856391907,-0.00970232579857111,0.5795934796333313,-0.4051966071128845,-0.004333481192588806,0.0,1.6901493072509766,-1.112222671508789,-0.7670041918754578,16.0,0.0,1.7845630645751953,-1.2137889862060547,-0.7670041918754578,22.0,0.0,1.6536712646484375,-0.9677410125732422,-0.7670041918754578,12.25,0.0,1.9812583923339844,-1.250624656677246,-0.7670041918754578,19.25,0.0,2.1572113037109375,-1.324295997619629,-1.342257335782051,15.0,0.0,2.2913217544555664,-1.3546943664550781,-0.7670041918754578,13.5,0.0,2.9969215393066406,-1.1876821517944336,0.0,18.5,0.0,3.1131505966186523,-1.2874603271484375,0.0,14.5,,,,,,,,,,,,,,,,,,,,,,,,,,,,,,
0.0,-1.3089778423309326,2.9034264087677,0.0031159063801169395,0.822838306427002,-0.589571475982666,-0.009931924752891064,0.5556073188781738,-0.3992697596549988,-0.004438957665115595,0.0,1.6851425170898438,-1.2198686599731445,-0.19175104796886444,13.25,0.0,1.8002986907958984,-1.2813806533813477,-0.3835020959377289,22.0,0.0,1.9562244415283203,-1.244187355041504,-0.19175104796886444,20.75,0.0,2.138972282409668,-1.1944770812988281,-0.7670041918754578,14.0,,,,,,,,,,,,,,,,,,,,,,,,,,,,,,,,,,,,,,,,,,,,,,,,,,
0.0,-1.3243005275726318,2.8526508808135986,0.002872222801670432,0.7924150228500366,-0.601402759552002,-0.010199936106801033,0.5197943449020386,-0.35903316736221313,-0.004571010358631611,0.0,1.5181303024291992,-1.0625123977661133,-0.3835020959377289,13.75,0.0,1.5785694122314453,-1.0721683502197266,-0.3835020959377289,24.0,0.0,1.581430435180664,-1.0843276977539062,-0.3835020959377289,25.5,0.0,1.6565322875976562,-1.2359619140625,-0.3835020959377289,18.75,0.0,1.9969940185546875,-1.2001991271972656,-0.19175104796886444,17.75,0.0,2.1146535873413086,-1.2820959091186523,-0.19175104796886444,12.5,,,,,,,,,,,,,,,,,,,,,,,,,,,,,,,,,,,,,,,,
0.0,-1.3299046754837036,2.8269622325897217,0.0027151466347277164,0.7764406800270081,-0.6000099778175354,-0.010377541184425354,0.4975353479385376,-0.32665497064590454,-0.004660356789827347,0.0,3.2150745391845703,-1.293182373046875,-0.3835020959377289,20.0,0.0,3.274083137512207,-1.3707876205444336,-0.3835020959377289,16.75,0.0,3.189682960510254,-0.9731054306030273,-0.3835020959377289,19.0,0.0,3.032684326171875,-0.11837482452392578,-0.3835020959377289,20.5,0.0,2.864956855773926,0.01895427703857422,-0.3835020959377289,21.0,0.0,2.9228925704956055,-0.0057220458984375,-0.3835020959377289,23.5,0.0,3.4242868423461914,-1.1268854141235352,0.0,18.0,0.0,3.3255815505981445,-0.9613037109375,0.0,21.5,0.0,3.2300949096679688,-0.4248619079589844,0.0,24.0,0.0,2.878904342651367,0.005364418029785156,0.0,24.25,0.0,2.953648567199707,0.0286102294921875,0.0,27.5,0.0,3.0645132064819336,0.010728836059570312,0.0,26.75,,,,,,,,,,
0.0,-0.29909971356391907,3.17588210105896,-0.00038092260365374386,0.103679358959198,-0.4958038628101349,-0.00017375548486597836,-0.2863219380378723,-0.7601536512374878,0.00024917186237871647,0.0,3.3527612686157227,-1.2738704681396484,-0.19175104796886444,13.0,0.0,3.3087730407714844,-0.5893707275390625,-0.3835020959377289,17.0,0.0,3.383517265319824,-0.5632638931274414,-0.3835020959377289,15.5,0.0,2.8166770935058594,0.02181529998779297,-0.19175104796886444,17.5,0.0,2.854585647583008,0.02753734588623047,-0.19175104796886444,17.0,0.0,2.7834177017211914,0.0025033950805664062,0.0,14.25,0.0,2.873539924621582,0.011444091796875,0.0,24.5,0.0,2.9386281967163086,0.022172927856445312,0.0,27.5,0.0,3.0469894409179688,-0.059723854064941406,0.0,25.75,,,,,,,,,,,,,,,,,,,,,,,,,
0.0,-0.3257121741771698,3.1457746028900146,-0.00031341909198090434,0.016857467591762543,-0.5058348178863525,-6.166431558085606e-05,-0.336566686630249,-0.6665052175521851,0.0002948319888673723,0.0,3.0019283294677734,-1.6150474548339844,-0.3835020959377289,19.75,0.0,3.1671524047851562,-1.4383792877197266,-0.3835020959377289,22.0,0.0,3.319859504699707,-1.2009143829345703,-0.3835020959377289,18.5,0.0,2.9747486114501953,-0.3293752670288086,-0.3835020959377289,15.5,0.0,2.751588821411133,0.07367134094238281,-0.5752531439065933,21.25,0.0,2.778768539428711,0.08654594421386719,-0.5752531439065933,27.5,0.0,2.8002262115478516,0.10335445404052734,-0.5752531439065933,24.75,0.0,2.7709007263183594,0.07224082946777344,0.0,17.25,0.0,2.850651741027832,0.036835670471191406,0.0,25.75,0.0,2.92360782623291,0.02396106719970703,0.0,27.75,0.0,3.0405521392822266,-0.0654458999633789,0.0,25.75,,,,,,,,,,,,,,,
0.0,-0.27626869082450867,3.073197364807129,-0.0002540861605666578,0.05996318534016609,-0.5872893333435059,3.625986573752016e-05,-0.27534398436546326,-0.6668614745140076,0.0003319529350847006,0.0,3.2569169998168945,-1.146554946899414,-0.5752531439065933,20.0,0.0,3.325939178466797,-1.2252330780029297,-0.5752531439065933,16.5,0.0,3.2279491424560547,-0.9001493453979492,-0.5752531439065933,19.5,0.0,3.0863285064697266,-0.6508827209472656,-0.5752531439065933,16.5,0.0,2.7086734771728516,0.057578086853027344,-0.7670041918754578,19.0,0.0,2.8295516967773438,0.06508827209472656,-0.5752531439065933,17.5,0.0,2.7294158935546875,0.08726119995117188,-0.5752531439065933,22.5,0.0,3.4983158111572266,-1.3679265975952148,0.0,13.5,0.0,3.379225730895996,-1.159071922302246,0.0,17.25,0.0,3.303050994873047,-0.9298324584960938,0.0,20.25,0.0,2.7698278427124023,0.04363059997558594,0.0,18.25,0.0,2.844572067260742,0.03361701965332031,0.0,26.75,0.0,2.9153823852539062,0.023245811462402344,0.0,28.25,0.0,3.043055534362793,-0.08404254913330078,0.0,26.0
0.0,-0.343158096075058,3.0240795612335205,-0.0001790256646927446,-0.08358308672904968,-0.6334583163261414,0.00014208443462848663,-0.37115609645843506,-0.6454687118530273,0.0003704346891026944,0.0,3.1957626342773438,-1.5163421630859375,-0.5752531439065933,16.25,0.0,3.1145811080932617,-1.268148422241211,-0.7670041918754578,20.25,0.0,3.1582117080688477,-1.3439655303955078,-0.5752531439065933,19.75,0.0,3.093123435974121,-0.8865594863891602,-0.7670041918754578,15.5,0.0,2.637147903442383,0.1666545867919922,-0.5752531439065933,19.75,0.0,2.670764923095703,0.21457672119140625,-0.5752531439065933,19.5,0.0,2.85494327545166,0.12230873107910156,-0.7670041918754578,13.75,0.0,3.0487775802612305,-0.1723766326904297,0.0,25.5,0.0,2.7447938919067383,0.06902217864990234,0.0,20.5,0.0,2.8249025344848633,0.04398822784423828,0.0,27.25,0.0,2.9039382934570312,0.017881393432617188,0.0,28.25,,,,,,,,,,,,,,,
0.0,-0.38509923219680786,2.9648220539093018,-0.00012431303912308067,-0.1727793961763382,-0.689231276512146,0.0002197884750785306,-0.4144982695579529,-0.6386878490447998,0.0003922244650311768,0.0,3.0777454376220703,-1.405477523803711,-0.7670041918754578,14.25,0.0,3.049135208129883,-1.147627830505371,-1.1505062878131866,17.5,0.0,3.039836883544922,-0.8096694946289062,-0.7670041918754578,18.0,0.0,2.887845039367676,-0.3172159194946289,-0.5752531439065933,16.25,0.0,2.5348663330078125,0.07832050323486328,-0.7670041918754578,19.75,0.0,2.566695213317871,0.09906291961669922,-0.7670041918754578,24.0,0.0,2.6407241821289062,0.09870529174804688,-0.9587552398443222,20.5,0.0,2.8156042098999023,0.05364418029785156,0.0,27.0,0.0,2.8928518295288086,0.0171661376953125,0.0,27.75,,,,,,,,,,,,,,,,,,,,,,,,,
0.0,-0.38873347640037537,2.8799033164978027,-7.542654930148274e-05,-0.18595290184020996,-0.7838435769081116,0.00028544390806928277,-0.3884865939617157,-0.6804251074790955,0.0004066904657520354,0.0,2.9790401458740234,-1.2985467910766602,-1.1505062878131866,16.5,0.0,3.1589269638061523,-1.2356042861938477,-1.5340083837509155,15.0,0.0,2.899289131164551,-1.021742820739746,-1.342257335782051,18.25,0.0,2.865314483642578,-0.7892847061157227,-0.5752531439065933,21.0,0.0,2.687215805053711,-0.6083250045776367,-0.7670041918754578,15.25,0.0,2.472996711730957,-0.08440017700195312,-0.7670041918754578,20.25,0.0,2.498030662536621,-0.06651878356933594,-0.7670041918754578,20.75,0.0,3.361344337463379,-1.145482063293457,0.0,16.5,0.0,3.188610076904297,-0.8035898208618164,0.0,20.5,0.0,3.27301025390625,-0.9595155715942383,0.0,20.5,0.0,3.0412673950195312,-0.5038976669311523,0.0,23.25,0.0,2.8055906295776367,0.036835670471191406,0.0,26.75,0.0,2.888202667236328,-0.045418739318847656,0.0,27.25,,,,,
0.0,-0.48383814096450806,2.789083957672119,-3.428525087656453e-05,-0.34772416949272156,-0.8938525319099426,0.0003358707472216338,-0.4883838891983032,-0.7467281818389893,0.0004115597694180906,0.0,2.795577049255371,-1.3693571090698242,-1.342257335782051,19.0,0.0,2.8821229934692383,-1.4609098434448242,-0.19175104796886444,19.0,0.0,2.957582473754883,-1.5889406204223633,-0.19175104796886444,15.0,0.0,2.5942325592041016,-1.0249614715576172,-1.342257335782051,19.75,0.0,2.701878547668457,-1.141190528869629,-1.342257335782051,16.75,0.0,2.4994611740112305,-0.5210638046264648,-0.7670041918754578,17.0,0.0,2.333521842956543,-0.12946128845214844,-0.7670041918754578,17.5,0.0,2.363920211791992,-0.16200542449951172,-0.7670041918754578,21.0,0.0,2.9625892639160156,-0.8103847503662109,0.0,20.5,0.0,2.8874874114990234,-0.1627206802368164,0.0,25.75,0.0,2.7887821197509766,0.016808509826660156,0.0,26.0,,,,,,,,,,,,,,,
0.0,-0.6422853469848633,2.6897637844085693,1.066601953425561e-06,-0.6067653298377991,-0.9907562136650085,0.0003758767561521381,-0.6675905585289001,-0.7746017575263977,0.0004105547268409282,0.0,2.8345584869384766,-1.5342235565185547,-0.19175104796886444,13.0,0.0,2.074599266052246,-0.972747802734375,-1.342257335782051,24.75,0.0,2.4755001068115234,-1.215219497680664,-1.72575943171978,22.75,0.0,2.578854560852051,-1.2606382369995117,-1.72575943171978,19.0,0.0,2.686142921447754,-1.3589859008789062,-1.72575943171978,15.25,0.0,2.1986961364746094,-0.8919239044189453,-1.342257335782051,26.75,0.0,2.347111701965332,-0.9670257568359375,-1.342257335782051,23.75,0.0,3.0333995819091797,-1.9147396087646484,0.0,13.0,0.0,2.834200859069824,-0.7009506225585938,0.0,20.5,0.0,2.7480125427246094,0.06222724914550781,0.0,24.75,,,,,,,,,,,,,,,,,,,,
0.0,-0.8093464970588684,2.525944709777832,2.5269291654694825e-05,-0.8251582384109497,-1.2390432357788086,0.0003945447679143399,-0.7702314853668213,-1.016860008239746,0.0003964824718423188,0.0,2.2916793823242188,-1.1190176010131836,-2.3010125756263733,27.0,0.0,2.3785829544067383,-1.2134313583374023,-1.5340083837509155,23.5,0.0,2.4733543395996094,-1.2753009796142578,-1.5340083837509155,16.25,0.0,2.0002126693725586,-0.8550882339477539,-1.72575943171978,12.5,0.0,2.0656585693359375,-0.8590221405029297,-0.7670041918754578,28.5,0.0,2.1518468856811523,-0.9691715240478516,-0.7670041918754578,27.5,0.0,2.7347803115844727,0.009655952453613281,0.0,24.0,,,,,,,,,,,,,,,,,,,,,,,,,,,,,,,,,,,
0.0,-0.9118358492851257,2.3533918857574463,4.765659832628444e-05,-0.9033006429672241,-1.452620506286621,0.000409125117585063,-0.7454779744148254,-1.1738759279251099,0.0003812182985711843,0.0,1.9397735595703125,-1.2649297714233398,-0.19175104796886444,27.0,0.0,1.8396377563476562,-1.004934310913086,-1.342257335782051,19.5,0.0,1.8743276596069336,-1.1233091354370117,-1.342257335782051,29.25,0.0,2.1511316299438477,-1.2677907943725586,-0.5752531439065933,22.0,0.0,2.3757219314575195,-1.181960105895996,-0.5752531439065933,17.25,0.0,2.022385597229004,-0.9562969207763672,0.0,27.5,,,,,,,,,,,,,,,,,,,,,,,,,,,,,,,,,,,,,,,,
0.0,-1.0754575729370117,2.1724491119384766,7.166565046645701e-05,-1.116328477859497,-1.6116563081741333,0.0004250891215633601,-0.8761583566665649,-1.2016935348510742,0.000368476816220209,0.0,2.9479265213012695,-1.958012580871582,-0.5752531439065933,14.75,0.0,3.0333995819091797,-1.4072656631469727,-0.7670041918754578,22.25,0.0,3.019094467163086,-1.5910863876342773,-0.5752531439065933,21.0,0.0,3.005504608154297,-0.3694295883178711,-0.7670041918754578,19.5,0.0,2.8384923934936523,0.09012222290039062,-0.7670041918754578,24.0,0.0,2.8721094131469727,0.054001808166503906,-0.7670041918754578,25.0,0.0,2.7562379837036133,0.15914440155029297,-0.7670041918754578,15.25,0.0,2.837061882019043,0.09012222290039062,-0.7670041918754578,23.75,0.0,3.3255815505981445,-1.3203620910644531,0.0,18.25,,,,,,,,,,,,,,,,,,,,,,,,,
0.0,-0.434689998626709,3.0411107540130615,-2.2083524982008385e-06,-0.29656922817230225,-0.8953858017921448,9.468321877648123e-06,-0.45342543721199036,-0.8820891976356506,1.3185291209083516e-05,0.0,2.826690673828125,-1.5099048614501953,-0.7670041918754578,19.25,0.0,2.9947757720947266,-1.5935897827148438,-1.1505062878131866,13.75,0.0,2.86710262298584,-0.7714033126831055,-0.9587552398443222,23.25,0.0,2.8148889541625977,-0.3275871276855469,-0.7670041918754578,30.5,0.0,2.793431282043457,-0.14984607696533203,-0.7670041918754578,31.5,0.0,2.7551651000976562,-0.054001808166503906,-0.7670041918754578,24.75,0.0,3.3963918685913086,-1.5606880187988281,0.0,13.5,0.0,3.296971321105957,-1.3614892959594727,0.0,18.0,,,,,,,,,,,,,,,,,,,,,,,,,,,,,,
0.0,-0.43342888355255127,2.936696767807007,-9.708872994451667e-07,-0.29016438126564026,-0.9864304065704346,1.1051724868593737e-05,-0.4122910797595978,-0.8727825284004211,1.3341144040168729e-05,0.0,2.9250383377075195,-1.6704797744750977,-0.7670041918754578,13.5,0.0,2.8853416442871094,-1.1368989944458008,-1.9175104796886444,24.5,0.0,2.9211044311523438,-1.3042688369750977,-0.7670041918754578,20.5,0.0,2.7773380279541016,-0.9731054306030273,-1.9175104796886444,22.75,0.0,2.7251243591308594,-0.4527568817138672,-1.9175104796886444,23.5,0.0,2.6754140853881836,-0.29718875885009766,-1.342257335782051,20.5,0.0,3.3652782440185547,-1.6275644302368164,0.0,13.0,0.0,3.2862424850463867,-1.3575553894042969,0.0,18.25,,,,,,,,,,,,,,,,,,,,,,,,,,,,,,
0.0,-0.5573052763938904,2.7998790740966797,6.558779830356798e-08,-0.4761420488357544,-1.1814918518066406,1.216139571624808e-05,-0.5236124992370605,-1.0213360786437988,1.319624061579816e-05,0.0,2.834200859069824,-1.829981803894043,-0.3835020959377289,13.75,0.0,2.778768539428711,-1.5256404876708984,-0.3835020959377289,17.25,0.0,2.740144729614258,-1.07574462890625,-1.5340083837509155,25.5,0.0,2.7698278427124023,-1.2466907501220703,-0.3835020959377289,22.25,0.0,2.621769905090332,-0.7960796356201172,-2.4927636235952377,25.25,0.0,2.499103546142578,-0.5879402160644531,-2.4927636235952377,27.75,0.0,2.343893051147461,-0.5300045013427734,-1.72575943171978,15.25,0.0,2.4526119232177734,-0.48351287841796875,-1.72575943171978,25.0,0.0,3.2701492309570312,-1.3833045959472656,0.0,18.75,,,,,,,,,,,,,,,,,,,,,,,,,
0.0,-0.6872507929801941,2.631855010986328,8.264335633612063e-07,-0.6455051302909851,-1.4117993116378784,1.2805335245502647e-05,-0.6061485409736633,-1.191739797592163,1.2785709259333089e-05,0.0,2.6199817657470703,-1.737356185913086,-0.5752531439065933,15.0,0.0,2.6443004608154297,-1.4734268188476562,-0.5752531439065933,21.5,0.0,2.581357955932617,-1.2123584747314453,-2.4927636235952377,17.75,0.0,2.628922462463379,-1.3861656188964844,-0.5752531439065933,22.0,0.0,2.055644989013672,-0.8947849273681641,-1.72575943171978,19.75,0.0,2.2737979888916016,-0.6598234176635742,-1.72575943171978,20.5,0.0,2.456545829772949,-0.6644725799560547,-1.72575943171978,17.5,,,,,,,,,,,,,,,,,,,,,,,,,,,,,,,,,,,
0.0,-0.8817182183265686,2.4711263179779053,1.485981101723155e-06,-0.9174144268035889,-1.5803261995315552,1.3245371519587934e-05,-0.7781652212142944,-1.2575384378433228,1.2280735063541215e-05,0.0,2.0363330841064453,-1.0231733322143555,-0.3835020959377289,29.25,0.0,2.090334892272949,-1.090407371520996,1.5340083837509155,30.5,0.0,2.177596092224121,-1.1529922485351562,1.5340083837509155,26.5,0.0,2.3353099822998047,-1.2581348419189453,-2.3010125756263733,17.75,0.0,2.5731325149536133,-1.3200044631958008,-0.3835020959377289,15.5,0.0,2.74050235748291,-1.372218132019043,0.19175104796886444,15.25,0.0,2.897500991821289,-1.3897418975830078,0.19175104796886444,12.75,0.0,1.896500587463379,-1.1157989501953125,0.0,26.0,0.0,2.9643774032592773,-0.7671117782592773,0.0,21.0,,,,,,,,,,,,,,,,,,,,,,,,,
0.0,-1.111244797706604,2.332557439804077,2.1871455828659236e-06,-1.2906126976013184,-1.594298005104065,1.3734153981204145e-05,-1.0776256322860718,-1.0749218463897705,1.1861180610139854e-05,0.0,2.2319555282592773,-1.5027523040771484,-1.5340083837509155,15.75,0.0,2.400040626525879,-1.5892982482910156,-1.1505062878131866,13.25,0.0,1.7788410186767578,-1.0335445404052734,-0.3835020959377289,16.0,0.0,1.8868446350097656,-1.0471343994140625,-0.3835020959377289,24.75,0.0,2.03096866607666,-1.1461973190307617,-0.19175104796886444,22.5,0.0,2.159714698791504,-1.3021230697631836,-0.19175104796886444,19.25,0.0,3.088831901550293,-1.7584562301635742,0.0,13.0,0.0,1.9501447677612305,-1.0439157485961914,0.0,25.25,0.0,2.8563737869262695,-1.1676549911499023,0.0,20.0,0.0,2.9554367065429688,-1.30462646484375,0.0,19.0,,,,,,,,,,,,,,,,,,,,
0.0,-1.257761836051941,2.1502835750579834,2.7345188300387235e-06,-1.4321339130401611,-1.7180925607681274,1.3819490959576797e-05,-1.1155874729156494,-1.0777040719985962,1.1191837074875366e-05,0.0,1.9136667251586914,-1.4913082122802734,-0.3835020959377289,17.75,0.0,1.8192529678344727,-1.2044906616210938,-1.1505062878131866,27.25,0.0,1.862168312072754,-1.3407468795776367,-1.1505062878131866,25.0,0.0,1.6804933547973633,-1.0410547256469727,-0.19175104796886444,14.75,0.0,1.752018928527832,-1.1154413223266602,-0.19175104796886444,20.25,0.0,1.8503665924072266,-1.1644363403320312,0.0,27.25,0.0,2.8009414672851562,-1.2695789337158203,0.0,19.25,0.0,2.862095832824707,-1.4895200729370117,0.0,16.75,0.0,2.2183656692504883,-0.8586645126342773,0.0,25.75,,,,,,,,,,,,,,,,,,,,,,,,,
0.0,-1.3690814971923828,1.9511728286743164,3.2155787721421802e-06,-1.4745492935180664,-1.8562757968902588,1.370315658277832e-05,-1.0533961057662964,-1.1048011779785156,1.0426128028484527e-05,0.0,1.6933679580688477,-1.2377500534057617,-0.3835020959377289,17.5,0.0,1.737356185913086,-1.2803077697753906,-0.3835020959377289,25.25,0.0,1.9061565399169922,-1.209855079650879,-0.9587552398443222,20.75,0.0,2.1142959594726562,-1.1429786682128906,-0.9587552398443222,12.5,0.0,1.6243457794189453,-1.2881755828857422,0.0,12.25,0.0,1.738429069519043,-1.2745857238769531,0.0,29.5,0.0,2.8585195541381836,-1.39617919921875,0.0,15.5,0.0,2.7920007705688477,-1.2341737747192383,0.0,19.25,0.0,2.8156042098999023,-0.6562471389770508,0.0,20.0,,,,,,,,,,,,,,,,,,,,,,,,,
0.0,-1.450821042060852,1.7903270721435547,3.698157797771273e-06,-1.4468817710876465,-1.904494285583496,1.3524434507417027e-05,-0.9349271655082703,-1.0429167747497559,9.664607205195352e-06,0.0,1.669764518737793,-1.2238025665283203,-0.19175104796886444,13.5,0.0,1.8131732940673828,-1.2298822402954102,-0.5752531439065933,22.5,0.0,1.9401311874389648,-1.2520551681518555,-0.5752531439065933,22.25,0.0,2.094268798828125,-1.2273788452148438,-0.19175104796886444,15.0,0.0,2.838134765625,-1.2677907943725586,0.3835020959377289,13.25,0.0,1.6314983367919922,-1.282811164855957,0.0,13.5,0.0,1.754164695739746,-1.2552738189697266,0.0,30.0,,,,,,,,,,,,,,,,,,,,,,,,,,,,,,,,,,,
0.0,-1.50607430934906,1.7228235006332397,3.861070581478998e-06,-1.3784252405166626,-1.7628871202468872,1.2898697605123743e-05,-0.8049372434616089,-0.7959470748901367,8.676996003487147e-06,0.0,2.948641777038574,-1.145482063293457,-0.9587552398443222,19.5,0.0,3.0155181884765625,-1.2230873107910156,-0.9587552398443222,18.75,0.0,3.165721893310547,-1.175522804260254,-0.9587552398443222,13.25,0.0,2.716541290283203,-0.16736984252929688,-0.9587552398443222,22.75,0.0,2.824544906616211,-0.12302398681640625,-0.7670041918754578,17.5,0.0,2.681136131286621,-0.06008148193359375,-0.9587552398443222,20.0,,,,,,,,,,,,,,,,,,,,,,,,,,,,,,,,,,,,,,,,
0.0,-0.772509753704071,2.9417574405670166,0.008247513324022293,-0.6150330305099487,-1.1154632568359375,0.022355325520038605,-0.5854665040969849,-1.1959283351898193,0.016162661835551262,0.0,2.8967857360839844,-1.0875463485717773,-1.1505062878131866,17.75,0.0,2.7909278869628906,-0.9237527847290039,-1.1505062878131866,17.0,0.0,3.1206607818603516,-0.9466409683227539,-1.1505062878131866,12.25,0.0,3.293752670288086,-1.0002851486206055,-0.9587552398443222,12.5,0.0,2.5295019149780273,0.030755996704101562,-0.9587552398443222,17.25,0.0,2.639651298522949,-0.021457672119140625,-0.9587552398443222,16.25,0.0,2.5495290756225586,0.08475780487060547,-0.9587552398443222,21.25,,,,,,,,,,,,,,,,,,,,,,,,,,,,,,,,,,,
0.0,-0.7040954232215881,2.850100040435791,0.007491346448659897,-0.4651249349117279,-1.1759371757507324,0.02071131020784378,-0.42253708839416504,-1.1298797130584717,0.01458480954170227,0.0,2.7179718017578125,-1.2999773025512695,-1.342257335782051,24.25,0.0,2.6035308837890625,-1.0238885879516602,-1.342257335782051,26.5,0.0,2.674698829650879,-1.1687278747558594,-1.342257335782051,28.0,0.0,2.8949975967407227,-1.2524127960205078,-1.5340083837509155,15.75,0.0,2.5348663330078125,-0.08547306060791016,-0.9587552398443222,24.75,0.0,2.387881278991699,0.16057491302490234,-0.9587552398443222,18.25,0.0,2.442598342895508,0.14698505401611328,-0.9587552398443222,25.5,0.0,3.3767223358154297,-1.2706518173217773,0.0,18.5,,,,,,,,,,,,,,,,,,,,,,,,,,,,,,
0.0,-0.7060204744338989,2.7228379249572754,0.006918628700077534,-0.4291652739048004,-1.2948973178863525,0.019239293411374092,-0.3554534614086151,-1.1442062854766846,0.013125774450600147,0.0,1.728057861328125,-1.3539791107177734,-0.19175104796886444,20.25,0.0,2.8291940689086914,-1.592874526977539,-2.684514671564102,12.5,0.0,2.422928810119629,-0.9248256683349609,-1.1505062878131866,27.75,0.0,2.459406852722168,-1.0832548141479492,-0.7670041918754578,23.5,0.0,2.587437629699707,-1.135110855102539,-1.5340083837509155,17.5,0.0,2.7741193771362305,-1.2062788009643555,-0.3835020959377289,13.75,0.0,2.3860931396484375,-0.6755590438842773,-1.1505062878131866,24.5,,,,,,,,,,,,,,,,,,,,,,,,,,,,,,,,,,,
0.0,-0.8322353959083557,2.566559314727783,0.0066436706110835075,-0.5980172157287598,-1.4558154344558716,0.01812966726720333,-0.4637218415737152,-1.1928660869598389,0.011910335160791874,0.0,2.8417110443115234,-1.9251108169555664,-0.3835020959377289,12.5,0.0,2.4508237838745117,-1.3790130615234375,-2.3010125756263733,17.25,0.0,2.620697021484375,-1.5488862991333008,-0.19175104796886444,13.75,0.0,2.802729606628418,-1.6808509826660156,-0.19175104796886444,13.0,0.0,2.304553985595703,-1.1175870895385742,-1.342257335782051,28.75,0.0,2.3556947708129883,-1.2445449829101562,-2.3010125756263733,24.5,0.0,2.28273868560791,-0.8668899536132812,-1.342257335782051,27.75,0.0,2.1779537200927734,-0.7646083831787109,-1.5340083837509155,23.5,0.0,2.8012990951538086,-1.282811164855957,0.0,19.5,0.0,2.9321908950805664,-1.3210773468017578,0.0,18.5,,,,,,,,,,,,,,,,,,,,
0.0,-0.9914442300796509,2.3953466415405273,0.005759882275015116,-0.7959433197975159,-1.638871192932129,0.016366763040423393,-0.5807920098304749,-1.2736685276031494,0.010407362133264542,0.0,2.208709716796875,-1.501321792602539,-0.7670041918754578,18.25,0.0,2.2884607315063477,-1.626133918762207,-1.1505062878131866,14.75,0.0,1.8453598022460938,-1.0485649108886719,-0.5752531439065933,14.25,0.0,1.9412040710449219,-1.119375228881836,-0.7670041918754578,27.75,0.0,2.024531364440918,-1.1955499649047852,-0.7670041918754578,28.5,0.0,2.1207332611083984,-1.3135671615600586,-0.7670041918754578,24.5,0.0,2.7952194213867188,-1.3017654418945312,0.0,19.75,0.0,2.9168128967285156,-1.347184181213379,0.0,18.5,0.0,2.7093887329101562,-1.0671615600585938,0.0,18.5,,,,,,,,,,,,,,,,,,,,,,,,,
0.0,-1.1646568775177002,2.1953938007354736,0.0057293432764709,-1.0361063480377197,-1.798647165298462,0.015516433864831924,-0.7544459700584412,-1.2780265808105469,0.009435881860554218,0.0,2.117156982421875,-1.6154050827026367,-1.342257335782051,13.5,0.0,1.9851922988891602,-1.4698505401611328,-1.342257335782051,17.75,0.0,1.7906427383422852,-1.1118650436401367,-0.9587552398443222,16.0,0.0,1.885056495666504,-1.1576414108276367,-1.1505062878131866,24.5,0.0,1.960158348083496,-1.222372055053711,-0.9587552398443222,23.25,0.0,2.7952194213867188,-1.2949705123901367,0.0,19.75,0.0,2.9511451721191406,-1.3049840927124023,0.0,18.25,,,,,,,,,,,,,,,,,,,,,,,,,,,,,,,,,,,
0.0,-1.2728955745697021,1.998200535774231,0.005741767585277557,-1.1063246726989746,-1.9484788179397583,0.014654857106506824,-0.7437028288841248,-1.3055702447891235,0.008473069407045841,0.0,1.7173290252685547,-1.0160207748413086,-0.7670041918754578,14.25,0.0,1.7895698547363281,-1.0650157928466797,-0.19175104796886444,21.0,0.0,1.842498779296875,-1.1426210403442383,-0.7670041918754578,25.25,0.0,1.9208192825317383,-1.225590705871582,-0.7670041918754578,22.0,0.0,2.050638198852539,-1.301407814025879,-0.7670041918754578,15.0,0.0,2.7837753295898438,-1.3175010681152344,0.0,20.25,0.0,2.8957128524780273,-1.3672113418579102,0.0,18.5,0.0,3.035902976989746,-1.4183521270751953,0.0,12.75,,,,,,,,,,,,,,,,,,,,,,,,,,,,,,
0.0,-1.3478952646255493,1.829180121421814,0.005619829520583153,-1.1381958723068237,-2.000016689300537,0.01365857757627964,-0.7305507063865662,-1.2066822052001953,0.0075122457928955555,0.0,2.8449296951293945,-1.502394676208496,-0.3835020959377289,16.25,0.0,2.8499364852905273,-0.9799003601074219,-0.3835020959377289,19.5,0.0,2.7930736541748047,-0.5271434783935547,-0.7670041918754578,25.25,0.0,2.736210823059082,-0.3426074981689453,-0.5752531439065933,27.0,0.0,2.6482343673706055,-0.04684925079345703,-0.5752531439065933,24.25,0.0,2.538442611694336,0.1659393310546875,-0.5752531439065933,19.0,,,,,,,,,,,,,,,,,,,,,,,,,,,,,,,,,,,,,,,,
0.0,-0.013996951282024384,2.8438539505004883,0.009927945211529732,0.3135684132575989,-0.557457447052002,0.027329131960868835,-0.209976464509964,-0.7211328744888306,0.021434029564261436,0.0,2.991914749145508,-1.1311769485473633,-0.5752531439065933,12.75,0.0,2.922177314758301,-1.0056495666503906,-0.7670041918754578,18.25,0.0,2.7823448181152344,-0.7513761520385742,-0.7670041918754578,17.0,0.0,2.6189088821411133,-0.47957897186279297,-0.9587552398443222,20.5,0.0,2.675771713256836,-0.35583972930908203,-0.9587552398443222,22.0,0.0,2.4057626724243164,0.3973245620727539,-0.7670041918754578,14.25,,,,,,,,,,,,,,,,,,,,,,,,,,,,,,,,,,,,,,,,
0.0,-0.15238960087299347,2.7728400230407715,0.00897954497486353,0.035408854484558105,-0.6621596813201904,0.025506306439638138,-0.4103224277496338,-0.7669591903686523,0.019507696852087975,0.0,2.7115345001220703,-1.4176368713378906,-0.7670041918754578,20.5,0.0,2.7844905853271484,-1.5027523040771484,-1.342257335782051,16.25,0.0,2.659320831298828,-1.153707504272461,-0.7670041918754578,23.0,0.0,2.6181936264038086,-0.29790401458740234,-0.7670041918754578,26.5,0.0,2.474069595336914,0.05364418029785156,-0.7670041918754578,29.5,0.0,2.526998519897461,-0.06973743438720703,-0.7670041918754578,30.75,0.0,2.38645076751709,0.15914440155029297,-0.7670041918754578,21.75,,,,,,,,,,,,,,,,,,,,,,,,,,,,,,,,,,,
0.0,-0.17244967818260193,2.6783289909362793,0.00843169167637825,-0.04086126387119293,-0.770075261592865,0.024148497730493546,-0.4387291967868805,-0.7905511260032654,0.01791597716510296,0.0,2.910017967224121,-1.6340017318725586,-0.5752531439065933,13.75,0.0,2.6099681854248047,-1.2273788452148438,-0.9587552398443222,24.5,0.0,2.756953239440918,-1.3496875762939453,-0.9587552398443222,21.25,0.0,2.856731414794922,-1.4412403106689453,-0.5752531439065933,19.5,0.0,2.501249313354492,-0.859379768371582,-0.7670041918754578,27.5,0.0,2.452254295349121,-0.3300905227661133,-0.7670041918754578,33.0,0.0,2.3778676986694336,-0.11980533599853516,-0.7670041918754578,27.75,0.0,2.424001693725586,-0.21135807037353516,-0.7670041918754578,34.25,,,,,,,,,,,,,,,,,,,,,,,,,,,,,,
0.0,-0.2324763536453247,2.5822839736938477,0.008511888794600964,-0.17125079035758972,-0.8596833348274231,0.023453928530216217,-0.5086926817893982,-0.7899706363677979,0.016719171777367592,0.0,2.6160478591918945,-1.2667179107666016,-1.1505062878131866,20.75,0.0,2.6929378509521484,-1.353621482849121,-1.1505062878131866,18.75,0.0,2.8717517852783203,-1.3278722763061523,-0.3835020959377289,13.5,0.0,2.5005340576171875,-1.1268854141235352,-1.1505062878131866,20.5,0.0,2.3953914642333984,-0.5997419357299805,-0.9587552398443222,25.0,0.0,2.3020505905151367,-0.2599954605102539,-0.9587552398443222,27.75,0.0,2.3217201232910156,-0.3247261047363281,-0.9587552398443222,30.25,,,,,,,,,,,,,,,,,,,,,,,,,,,,,,,,,,,
0.0,-0.45844948291778564,2.501380205154419,0.007137594744563103,-0.5464627146720886,-0.9514727592468262,0.021225810050964355,-0.7664871215820312,-0.825284481048584,0.014810471795499325,0.0,2.582073211669922,-1.5295743942260742,-0.5752531439065933,14.25,0.0,2.4379491806030273,-1.1626482009887695,-1.342257335782051,21.0,0.0,2.530217170715332,-1.260995864868164,-1.342257335782051,18.5,0.0,2.321004867553711,-0.9459257125854492,-1.5340083837509155,25.5,0.0,2.111077308654785,-0.5042552947998047,-0.7670041918754578,15.75,0.0,2.2569894790649414,-0.40912628173828125,-0.7670041918754578,31.25,0.0,2.2094249725341797,-0.33724308013916016,-0.7670041918754578,32.75,0.0,2.935051918029785,-1.3085603713989258,0.0,22.75,0.0,3.0809640884399414,-1.2538433074951172,0.0,17.0,,,,,,,,,,,,,,,,,,,,,,,,,
0.0,-0.5996193289756775,2.3832223415374756,0.00641239620745182,-0.7522053718566895,-1.0867170095443726,0.01964634470641613,-0.866839587688446,-0.8945198655128479,0.013279070146381855,0.0,2.31170654296875,-1.2999773025512695,0.19175104796886444,22.0,0.0,2.433300018310547,-1.3922452926635742,-0.19175104796886444,16.75,0.0,2.145051956176758,-1.0828971862792969,0.19175104796886444,27.5,0.0,2.270221710205078,-1.1758804321289062,0.19175104796886444,27.5,0.0,2.6793479919433594,-1.4215707778930664,0.3835020959377289,12.5,0.0,1.9104480743408203,-0.8543729782104492,-1.5340083837509155,13.75,0.0,2.0116567611694336,-0.9047985076904297,-1.5340083837509155,27.5,0.0,2.7573108673095703,-1.342177391052246,0.0,20.75,0.0,2.888202667236328,-1.3600587844848633,0.0,19.0,0.0,3.1224489212036133,-1.2094974517822266,0.0,13.25,,,,,,,,,,,,,,,,,,,,
0.0,-0.8667069673538208,2.281153678894043,0.0061932094395160675,-1.1843327283859253,-1.1265066862106323,0.01865631528198719,-1.175727128982544,-0.8121673464775085,0.01213427260518074,0.0,1.7284154891967773,-1.1168718338012695,-0.3835020959377289,16.5,0.0,1.7284154891967773,-1.2499094009399414,0.19175104796886444,25.75,0.0,1.934051513671875,-1.284956932067871,-0.19175104796886444,20.25,0.0,2.440810203552246,-1.4705657958984375,0.19175104796886444,14.0,0.0,2.2791624069213867,-1.1551380157470703,-0.19175104796886444,16.75,0.0,2.365708351135254,-1.2738704681396484,0.7670041918754578,16.25,0.0,2.7583837509155273,-1.3300180435180664,0.0,20.75,0.0,2.8839111328125,-1.362919807434082,0.0,18.75,0.0,3.0351877212524414,-1.3747215270996094,0.0,12.5,,,,,,,,,,,,,,,,,,,,,,,,,
0.0,-1.1163239479064941,2.149667501449585,0.00636666314676404,-1.5636680126190186,-1.1957173347473145,0.01800910383462906,-1.4285287857055664,-0.7614749073982239,0.011192763224244118,0.0,1.9354820251464844,-1.5592575073242188,0.19175104796886444,12.25,0.0,1.6944408416748047,-1.1612176895141602,1.1505062878131866,18.25,0.0,1.7055273056030273,-1.2863874435424805,1.1505062878131866,25.0,0.0,1.8124580383300781,-1.3647079467773438,0.19175104796886444,18.5,0.0,1.6669034957885742,-0.9706020355224609,0.19175104796886444,12.75,0.0,2.76947021484375,-1.3189315795898438,0.0,21.25,0.0,2.9053688049316406,-1.3153553009033203,0.0,19.5,0.0,3.0537843704223633,-1.3110637664794922,0.0,12.25,,,,,,,,,,,,,,,,,,,,,,,,,,,,,,
0.0,-1.3544114828109741,1.9921238422393799,0.0067743463441729546,-1.9073638916015625,-1.2719759941101074,0.017560437321662903,-1.6490566730499268,-0.7067946791648865,0.01039442140609026,0.0,1.6733407974243164,-0.9452104568481445,-0.19175104796886444,16.25,0.0,1.7234086990356445,-1.0449886322021484,-0.19175104796886444,19.75,0.0,1.8045902252197266,-1.1004209518432617,-0.3835020959377289,23.75,0.0,1.9848346710205078,-1.0821819305419922,-0.3835020959377289,17.25,0.0,2.7322769165039062,-1.3779401779174805,0.0,20.5,0.0,2.891063690185547,-1.3557672500610352,0.0,18.5,,,,,,,,,,,,,,,,,,,,,,,,,,,,,,,,,,,,,,,,
0.0,-1.4220486879348755,1.880448818206787,0.007054778281599283,-1.8110547065734863,-1.299843430519104,0.016822146251797676,-1.4037091732025146,-0.672742486000061,0.009426423348486423,0.0,2.300262451171875,-1.8346309661865234,-1.1505062878131866,13.0,0.0,1.6772747039794922,-1.1926889419555664,-0.3835020959377289,15.0,0.0,1.774907112121582,-1.1698007583618164,-0.3835020959377289,23.0,0.0,1.8682479858398438,-1.2220144271850586,-0.9587552398443222,17.0,0.0,2.742648124694824,-1.3507604598999023,0.0,20.25,0.0,2.9050111770629883,-1.314997673034668,0.0,18.0,0.0,2.90679931640625,-1.3157129287719727,0.0,17.75,,,,,,,,,,,,,,,,,,,,,,,,,,,,,,,,,,,
0.0,-1.4809563159942627,1.7874146699905396,0.0070368279702961445,-1.66257905960083,-1.3153460025787354,0.015687113627791405,-1.1090481281280518,-0.6556900143623352,0.008267131634056568,0.0,1.530289649963379,-1.1851787567138672,0.3835020959377289,13.0,0.0,1.6071796417236328,-1.2044906616210938,0.3835020959377289,15.5,0.0,1.6998052597045898,-1.2524127960205078,0.19175104796886444,19.25,0.0,1.817464828491211,-1.361846923828125,0.19175104796886444,15.0,0.0,2.6171207427978516,-1.5732049942016602,0.0,14.25,0.0,2.93576717376709,-1.3543367385864258,0.0,12.75,0.0,2.318859100341797,-0.962376594543457,0.0,18.25,,,,,,,,,,,,,,,,,,,,,,,,,,,,,,,,,,,
0.0,-1.579592227935791,1.6846222877502441,0.006985165178775787,-1.6597336530685425,-1.2993959188461304,0.014604243449866772,-1.0238020420074463,-0.565167248249054,0.007242641877382994,0.0,1.5456676483154297,-1.1826753616333008,-0.3835020959377289,14.5,0.0,1.6701221466064453,-1.1301040649414062,-0.3835020959377289,17.75,0.0,1.8725395202636719,-1.2009143829345703,0.3835020959377289,14.0,0.0,1.783132553100586,-1.1004209518432617,-0.3835020959377289,20.75,0.0,2.1647214889526367,-1.3386011123657227,0.0,17.5,0.0,2.4962425231933594,-1.4008283615112305,0.0,15.5,0.0,2.650022506713867,-1.4902353286743164,0.0,13.5,,,,,,,,,,,,,,,,,,,,,,,,,,,,,,,,,,,
0.0,-1.5911540985107422,1.638406753540039,0.006700427271425724,-1.464746356010437,-1.1879894733428955,0.013247929513454437,-0.7515707612037659,-0.4145194888114929,0.006109488662332296,0.0,1.4233589172363281,-1.1647939682006836,-0.5752531439065933,14.5,0.0,1.4805793762207031,-1.1751651763916016,-0.5752531439065933,21.5,0.0,1.5363693237304688,-1.1916160583496094,-0.5752531439065933,20.75,0.0,1.6586780548095703,-1.2416839599609375,-0.5752531439065933,19.0,0.0,1.7949342727661133,-1.3207197189331055,0.19175104796886444,13.0,0.0,2.0145177841186523,-1.1680126190185547,0.0,22.5,0.0,2.24912166595459,-1.223444938659668,0.0,17.0,0.0,2.35140323638916,-1.3550519943237305,0.0,17.25,0.0,2.451181411743164,-1.4770030975341797,0.0,14.75,0.0,2.696871757507324,-1.4312267303466797,0.0,12.5,,,,,,,,,,,,,,,,,,,,
0.0,-1.5644949674606323,1.5773048400878906,0.005947328172624111,-1.1980419158935547,-1.11399245262146,0.011357062496244907,-0.42122960090637207,-0.32663846015930176,0.004722761921584606,0.0,1.3643503189086914,-1.1858940124511719,-0.19175104796886444,13.0,0.0,1.4734268188476562,-1.1637210845947266,-0.19175104796886444,19.0,0.0,1.5932321548461914,-1.1669397354125977,-0.19175104796886444,18.75,0.0,1.878976821899414,-1.2531280517578125,0.19175104796886444,13.25,0.0,1.7927885055541992,-1.1258125305175781,-0.3835020959377289,18.5,0.0,1.794576644897461,-1.3554096221923828,0.0,20.0,0.0,1.795649528503418,-1.3561248779296875,0.0,19.75,0.0,2.533078193664551,-1.5195608139038086,0.0,12.0,0.0,2.743363380432129,-1.4122724533081055,0.0,12.75,,,,,,,,,,,,,,,,,,,,,,,,,
0.0,-1.548863410949707,1.5570182800292969,0.005304145161062479,-1.004228115081787,-0.9620082974433899,0.009737365879118443,-0.21423429250717163,-0.15652641654014587,0.0035888194106519222,0.0,2.922177314758301,-1.5006065368652344,-0.9587552398443222,15.0,0.0,3.0094385147094727,-1.5463829040527344,-0.9587552398443222,12.25,0.0,2.67791748046875,-1.0002851486206055,-1.1505062878131866,23.0,0.0,2.7669668197631836,-1.2320280075073242,-0.9587552398443222,13.0,0.0,2.6532411575317383,-0.9140968322753906,-1.1505062878131866,22.25,0.0,2.5742053985595703,-0.3883838653564453,-0.5752531439065933,17.75,0.0,2.3163557052612305,0.06794929504394531,-0.5752531439065933,14.75,0.0,2.4050474166870117,-0.004649162292480469,-0.5752531439065933,17.75,0.0,2.8395652770996094,-0.10693073272705078,0.0,28.5,0.0,2.6314258575439453,0.023245811462402344,0.0,27.5,0.0,2.4847984313964844,0.10442733764648438,0.0,25.0,,,,,,,,,,,,,,,
0.0,-0.5049986839294434,2.621119737625122,0.000254240381764248,-0.41456466913223267,-0.7335619330406189,0.000506460084579885,-0.5167101621627808,-0.425200492143631,0.0001450899289920926,0.0,2.8563737869262695,-1.4036893844604492,-0.19175104796886444,14.75,0.0,2.6886463165283203,-1.145482063293457,-1.342257335782051,20.25,0.0,2.801656723022461,-1.2205839157104492,-0.19175104796886444,17.25,0.0,2.5931596755981445,-0.9559392929077148,-1.342257335782051,21.5,0.0,2.5194883346557617,-0.46706199645996094,-0.7670041918754578,21.0,0.0,2.3267269134521484,-0.1780986785888672,-0.7670041918754578,17.0,0.0,2.406477928161621,-0.2117156982421875,-0.7670041918754578,21.25,0.0,2.9042959213256836,-1.0074377059936523,0.0,20.0,,,,,,,,,,,,,,,,,,,,,,,,,,,,,,
0.0,-0.5996102094650269,2.5478758811950684,0.00022539737983606756,-0.5456383228302002,-0.803767204284668,0.0004236632084939629,-0.576295018196106,-0.4814721345901489,8.811977750156075e-05,0.0,2.467989921569824,-1.3818740844726562,-0.5752531439065933,17.0,0.0,2.643585205078125,-1.4526844024658203,-1.342257335782051,13.0,0.0,1.9665956497192383,-0.9552240371704102,-0.7670041918754578,17.75,0.0,2.3882389068603516,-1.1587142944335938,-1.342257335782051,22.0,0.0,2.407550811767578,-1.2917518615722656,-1.342257335782051,21.75,0.0,2.316713333129883,-0.7420778274536133,-0.7670041918754578,17.0,0.0,2.9093027114868164,-1.0260343551635742,0.0,17.5,,,,,,,,,,,,,,,,,,,,,,,,,,,,,,,,,,,
0.0,-0.7800365090370178,2.4267189502716064,0.0002065307489829138,-0.8040586113929749,-0.9701516032218933,0.0003553333517629653,-0.7310532927513123,-0.6510523557662964,4.1526287532178685e-05,0.0,2.0341873168945312,-1.222372055053711,-2.3010125756263733,27.75,0.0,2.1944046020507812,-1.2481212615966797,-2.3010125756263733,25.75,0.0,2.4722814559936523,-1.4237165451049805,-2.3010125756263733,17.0,0.0,2.5960206985473633,-1.5778541564941406,-2.4927636235952377,14.75,0.0,2.019166946411133,-0.9949207305908203,-0.9587552398443222,27.0,0.0,2.38645076751709,-1.2137889862060547,-1.5340083837509155,19.75,0.0,1.7294883728027344,-1.3346672058105469,0.0,21.5,0.0,2.84421443939209,-1.188039779663086,0.0,17.25,0.0,2.760171890258789,-0.8972883224487305,0.0,18.0,,,,,,,,,,,,,,,,,,,,,,,,,
0.0,-0.8829322457313538,2.2575507164001465,0.00018245104001834989,-0.8268683552742004,-1.2818071842193604,0.00028201716486364603,-0.611703634262085,-1.0396877527236938,-7.463222573278472e-06,0.0,1.9240379333496094,-1.3418197631835938,-2.4927636235952377,26.75,0.0,1.856088638305664,-1.153707504272461,-1.1505062878131866,27.25,0.0,2.140045166015625,-1.3142824172973633,-2.4927636235952377,22.25,0.0,2.4747848510742188,-1.384735107421875,0.19175104796886444,14.25,0.0,1.8249750137329102,-0.9688138961791992,-1.1505062878131866,17.0,0.0,2.3632049560546875,-1.2527704238891602,-2.3010125756263733,18.0,0.0,1.852869987487793,-1.179814338684082,0.0,24.75,0.0,2.8170347213745117,-1.2416839599609375,0.0,17.5,0.0,2.7333498001098633,-1.0124444961547852,0.0,18.25,,,,,,,,,,,,,,,,,,,,,,,,,
0.0,-1.0223854780197144,2.090085029602051,0.0001560543169034645,-0.9531405568122864,-1.4912538528442383,0.00021151109831407666,-0.6389503479003906,-1.1927565336227417,-5.005226194043644e-05,0.0,1.829981803894043,-1.0703802108764648,-0.3835020959377289,21.5,0.0,1.8743276596069336,-1.1354684829711914,-0.3835020959377289,31.5,0.0,1.9562244415283203,-1.1848211288452148,-1.342257335782051,27.75,0.0,2.0781755447387695,-1.272439956665039,-1.342257335782051,19.75,0.0,2.22623348236084,-1.3232231140136719,-0.3835020959377289,13.25,0.0,2.3442506790161133,-0.985264778137207,0.0,22.5,0.0,2.525210380554199,-1.041412353515625,0.0,17.5,0.0,2.808809280395508,-1.2356042861938477,0.0,17.5,,,,,,,,,,,,,,,,,,,,,,,,,,,,,,
0.0,-1.1393412351608276,1.9374544620513916,0.00013599680096376687,-1.0531405210494995,-1.6066354513168335,0.00015441415598616004,-0.673348069190979,-1.1865061521530151,-8.115720993373543e-05,0.0,1.6046762466430664,-1.3622045516967773,-0.7670041918754578,19.0,0.0,1.763463020324707,-1.3375282287597656,-0.7670041918754578,29.25,0.0,2.020597457885742,-1.1737346649169922,-0.3835020959377289,29.0,0.0,2.1321773529052734,-1.1601448059082031,-0.3835020959377289,22.75,0.0,1.9118785858154297,-1.1390447616577148,0.0,30.0,0.0,2.0520687103271484,-1.1429786682128906,0.0,29.75,0.0,2.2194385528564453,-1.1501312255859375,0.0,23.0,0.0,2.9168128967285156,-1.3439655303955078,0.0,16.25,0.0,2.534151077270508,-0.9752511978149414,0.0,18.0,,,,,,,,,,,,,,,,,,,,,,,,,
0.0,-1.254903793334961,1.7897064685821533,0.00012018585402984172,-1.139160394668579,-1.6888618469238281,0.00010705740714911371,-0.6966387629508972,-1.143862247467041,-0.0001044922464643605,0.0,1.6068220138549805,-1.0406970977783203,-0.3835020959377289,14.75,0.0,1.6883611679077148,-1.110076904296875,-0.3835020959377289,18.75,0.0,1.784205436706543,-1.2634992599487305,-0.5752531439065933,24.75,0.0,2.1321773529052734,-1.0614395141601562,-0.5752531439065933,23.75,0.0,2.2269487380981445,-1.1597871780395508,-0.5752531439065933,20.5,0.0,2.3506879806518555,-1.1554956436157227,-0.19175104796886444,16.25,0.0,1.9061565399169922,-1.1522769927978516,0.0,30.75,0.0,2.0399093627929688,-1.1612176895141602,0.0,30.25,0.0,2.164006233215332,-1.2356042861938477,0.0,22.5,0.0,2.4747848510742188,-1.0732412338256836,0.0,18.25,,,,,,,,,,,,,,,,,,,,
0.0,-1.3018364906311035,1.7187833786010742,9.118137677432969e-05,-1.0936851501464844,-1.6043583154678345,4.734034155262634e-05,-0.6111097931861877,-0.9323098063468933,-0.00013319062418304384,0.0,2.8628110885620117,-1.3614892959594727,-1.1505062878131866,16.75,0.0,2.9293298721313477,-1.433730125427246,-0.9587552398443222,16.75,0.0,3.0115842819213867,-1.5066862106323242,-0.9587552398443222,13.25,0.0,2.706170082092285,-1.1179447174072266,-0.7670041918754578,13.75,0.0,2.5205612182617188,-0.012159347534179688,-0.7670041918754578,23.0,0.0,2.555966377258301,-0.020384788513183594,-0.9587552398443222,27.25,0.0,2.5827884674072266,-0.08082389831542969,-0.9587552398443222,22.25,0.0,2.342104911804199,0.2295970916748047,-0.5752531439065933,13.5,0.0,3.059506416320801,-1.1658668518066406,0.0,20.0,,,,,,,,,,,,,,,,,,,,,,,,,
0.0,-0.9449784755706787,2.7501113414764404,1.9460590010567103e-06,-0.7461384534835815,-0.5826913118362427,-1.2244919389559072e-07,-0.2859817147254944,-0.41778820753097534,-3.4771146601997316e-06,0.0,2.718329429626465,-1.2009143829345703,-0.7670041918754578,24.75,0.0,2.7812719345092773,-1.1801719665527344,-0.7670041918754578,20.0,0.0,3.0012130737304688,-0.9659528732299805,-0.9587552398443222,13.75,0.0,2.6181936264038086,-0.3075599670410156,-0.7670041918754578,18.5,0.0,2.4025440216064453,-0.12123584747314453,-0.9587552398443222,20.0,0.0,2.4576187133789062,-0.14913082122802734,-0.9587552398443222,29.0,0.0,2.4586915969848633,-0.17201900482177734,-0.5752531439065933,28.75,0.0,3.036975860595703,-1.1669397354125977,0.0,19.25,0.0,2.5148391723632812,0.02181529998779297,0.0,21.75,,,,,,,,,,,,,,,,,,,,,,,,,
0.0,-0.8021583557128906,2.693141222000122,1.3195133305998752e-06,-0.39954304695129395,-0.6415802240371704,-1.1979494729530415e-06,0.03919118642807007,-0.4731026291847229,-3.908238795702346e-06,0.0,2.6035308837890625,-1.2363195419311523,-0.7670041918754578,21.25,0.0,2.5452375411987305,-1.1469125747680664,-0.7670041918754578,22.5,0.0,2.739429473876953,-1.191258430480957,-0.9587552398443222,15.5,0.0,2.2705793380737305,-0.4177093505859375,-0.9587552398443222,21.75,0.0,2.330660820007324,-0.40268898010253906,-0.9587552398443222,24.0,0.0,2.4622678756713867,-0.5371570587158203,-0.9587552398443222,20.25,0.0,2.751946449279785,-1.0617971420288086,0.0,22.5,0.0,3.0319690704345703,-1.129746437072754,0.0,19.0,0.0,3.1331777572631836,-1.2069940567016602,0.0,16.25,0.0,2.9207468032836914,-1.0317564010620117,0.0,18.75,0.0,2.4726390838623047,-0.1577138900756836,0.0,22.75,,,,,,,,,,,,,,,
0.0,-0.8219030499458313,2.5848546028137207,8.695712381268095e-07,-0.34952598810195923,-0.7811973690986633,-1.966345507753431e-06,0.09129080176353455,-0.5869545340538025,-4.1340153984492645e-06,0.0,2.477288246154785,-1.6869306564331055,-1.1505062878131866,17.5,0.0,2.708315849304199,-1.7480850219726562,-1.1505062878131866,14.75,0.0,2.4443864822387695,-1.3922452926635742,-1.5340083837509155,23.0,0.0,2.981901168823242,-1.6551017761230469,-1.1505062878131866,12.25,0.0,2.438664436340332,-1.2087821960449219,-0.5752531439065933,27.25,0.0,2.402186393737793,-1.061081886291504,-0.5752531439065933,28.25,0.0,2.3310184478759766,-0.4094839096069336,-1.1505062878131866,26.0,0.0,2.212643623352051,-0.24819374084472656,-1.5340083837509155,27.5,0.0,2.155423164367676,-0.1977682113647461,-1.5340083837509155,12.75,0.0,2.9382705688476562,-1.3489723205566406,0.0,18.5,0.0,3.0444860458374023,-1.4426708221435547,0.0,15.75,0.0,2.6235580444335938,-1.1647939682006836,0.0,19.5,0.0,2.8105974197387695,-1.2402534484863281,0.0,19.0,,,,,
0.0,-0.8858391046524048,2.4643993377685547,4.345322395238327e-07,-0.36209189891815186,-0.9639087319374084,-2.6376883397460915e-06,0.10124171525239944,-0.7628225088119507,-4.288619038561592e-06,0.0,2.450108528137207,-1.750946044921875,0.19175104796886444,12.0,0.0,2.3746490478515625,-1.3107061386108398,-0.19175104796886444,20.25,0.0,2.387881278991699,-1.4988183975219727,-0.19175104796886444,16.25,0.0,2.08890438079834,-1.0263919830322266,-0.3835020959377289,22.25,0.0,2.3020505905151367,-1.223444938659668,-0.19175104796886444,20.75,0.0,1.9097328186035156,-0.7034540176391602,-1.72575943171978,19.5,0.0,1.9869804382324219,-0.6744861602783203,-1.72575943171978,28.5,0.0,2.5910139083862305,-1.226663589477539,0.0,19.25,0.0,2.818465232849121,-1.2320280075073242,0.0,19.0,,,,,,,,,,,,,,,,,,,,,,,,,
0.0,-0.9860648512840271,2.33089017868042,1.0418372653475672e-07,-0.4693286418914795,-1.0851765871047974,-3.125921921309782e-06,-0.0060003772377967834,-0.789513349533081,-4.3263794395898e-06,0.0,1.6111135482788086,-1.2331008911132812,0.9587552398443222,16.0,0.0,1.621842384338379,-1.371145248413086,0.9587552398443222,27.5,0.0,1.856088638305664,-1.395106315612793,0.9587552398443222,20.5,0.0,2.079606056213379,-1.440882682800293,-0.19175104796886444,14.75,0.0,2.20334529876709,-1.5281438827514648,-0.19175104796886444,14.25,0.0,2.7251243591308594,-1.556396484375,-0.7670041918754578,14.25,0.0,2.8238296508789062,-1.5985965728759766,-0.19175104796886444,14.5,0.0,2.578854560852051,-1.237034797668457,0.0,19.75,0.0,2.770543098449707,-1.2431144714355469,0.0,18.5,,,,,,,,,,,,,,,,,,,,,,,,,
0.0,-1.234356164932251,2.208099842071533,-2.1021958218625514e-07,-0.8976156711578369,-1.103725552558899,-3.559963715815684e-06,-0.4516427218914032,-0.623197078704834,-4.336370238888776e-06,0.0,1.5206336975097656,-1.2563467025756836,-0.3835020959377289,20.25,0.0,1.6078948974609375,-1.3289451599121094,-0.3835020959377289,22.5,0.0,1.7927885055541992,-1.374363899230957,-0.3835020959377289,12.75,0.0,1.4562606811523438,-0.9348392486572266,-0.19175104796886444,15.25,0.0,1.501321792602539,-1.0896921157836914,-0.19175104796886444,18.5,0.0,2.5892257690429688,-1.2191534042358398,0.0,20.25,0.0,2.773761749267578,-1.2177228927612305,0.0,18.75,0.0,2.904653549194336,-1.2753009796142578,0.0,14.75,,,,,,,,,,,,,,,,,,,,,,,,,,,,,,
0.0,-1.3506134748458862,2.025799036026001,-4.6611850734734617e-07,-1.0033378601074219,-1.2588404417037964,-3.835596999124391e-06,-0.5177013874053955,-0.6900681257247925,-4.238966994307702e-06,0.0,1.559615135192871,-1.0353326797485352,-0.5752531439065933,13.0,0.0,1.682281494140625,-1.1404752731323242,-0.19175104796886444,15.0,0.0,1.7799139022827148,-1.2241601943969727,-0.3835020959377289,21.25,0.0,1.8543004989624023,-1.3271570205688477,-0.3835020959377289,15.25,0.0,2.5434494018554688,-1.2856721878051758,0.0,19.75,0.0,2.740144729614258,-1.280665397644043,0.0,17.25,0.0,2.9096603393554688,-1.319289207458496,0.0,13.75,,,,,,,,,,,,,,,,,,,,,,,,,,,,,,,,,,,
0.0,-1.4137262105941772,1.8917553424835205,-7.076681072248903e-07,-0.9901437759399414,-1.3201720714569092,-4.043035005452111e-06,-0.4659213721752167,-0.673407793045044,-4.101628746866481e-06,0.0,1.554250717163086,-1.0399818420410156,-0.19175104796886444,16.75,0.0,1.5757083892822266,-1.0932683944702148,-0.19175104796886444,16.0,0.0,1.6554594039916992,-1.2499094009399414,-0.19175104796886444,16.5,0.0,1.990199089050293,-1.2627840042114258,-0.3835020959377289,12.5,0.0,2.542734146118164,-1.2860298156738281,0.0,20.0,0.0,2.731204032897949,-1.2820959091186523,0.0,16.75,,,,,,,,,,,,,,,,,,,,,,,,,,,,,,,,,,,,,,,,
0.0,-1.4552255868911743,1.7748719453811646,-9.042081501320354e-07,-0.9456417560577393,-1.3307791948318481,-4.1518028410791885e-06,-0.40158480405807495,-0.6018505096435547,-3.910789473593468e-06,0.0,2.3310184478759766,-1.1472702026367188,0.19175104796886444,13.75,0.0,2.4068355560302734,-1.222372055053711,-0.19175104796886444,13.25,0.0,2.5180578231811523,-1.2803077697753906,0.0,19.0,0.0,2.7544498443603516,-1.2363195419311523,0.0,14.5,,,,,,,,,,,,,,,,,,,,,,,,,,,,,,,,,,,,,,,,,,,,,,,,,,
0.0,-1.5062668323516846,1.7295269966125488,-1.1961840300500626e-06,-0.9168424606323242,-1.2214860916137695,-4.359060312708607e-06,-0.35848909616470337,-0.42823755741119385,-3.7949371289869305e-06,,,,,,,,,,,,,,,,,,,,,,,,,,,,,,,,,,,,,,,,,,,,,,,,,,,,,,,,,,,,,,,,,,,,,,
,,,,,,,,,,0.0,2.9010772705078125,-1.5277862548828125,-0.3835020959377289,17.75,0.0,3.0487775802612305,-1.4805793762207031,-0.3835020959377289,14.75,0.0,2.8917789459228516,-1.2892484664916992,-1.342257335782051,18.25,0.0,2.7980804443359375,-0.16200542449951172,-0.3835020959377289,16.25,0.0,2.5742053985595703,0.13768672943115234,-0.9587552398443222,17.75,0.0,2.6221275329589844,0.16379356384277344,-0.9587552398443222,25.25,0.0,2.6417970657348633,0.18346309661865234,-0.3835020959377289,24.5,0.0,3.025174140930176,-0.015020370483398438,0.0,24.5,,,,,,,,,,,,,,,,,,,,,,,,,,,,,,
