tid,posx,posy,posz,velx,vely,velz,accx,accy,accz,pointx1,pointy1,pointz1,doppler1,snr1,pointx2,pointy2,pointz2,doppler2,snr2,pointx3,pointy3,pointz3,doppler3,snr3,pointx4,pointy4,pointz4,doppler4,snr4,pointx5,pointy5,pointz5,doppler5,snr5,pointx6,pointy6,pointz6,doppler6,snr6,pointx7,pointy7,pointz7,doppler7,snr7,pointx8,pointy8,pointz8,doppler8,snr8,pointx9,pointy9,pointz9,doppler9,snr9,pointx10,pointy10,pointz10,doppler10,snr10,pointx11,pointy11,pointz11,doppler11,snr11,pointx12,pointy12,pointz12,doppler12,snr12,pointx13,pointy13,pointz13,doppler13,snr13,pointx14,pointy14,pointz14,doppler14,snr14,pointx15,pointy15,pointz15,doppler15,snr15
0.0,0.009014836512506008,3.1559481620788574,-0.37470734119415283,0.03672138974070549,-0.3543604016304016,0.09235633909702301,0.0414714515209198,-0.23830871284008026,0.21437731385231018,0.0,3.2955408096313477,-1.1354684829711914,-0.5752531439065933,16.75,0.0,3.4607648849487305,-1.0017156600952148,-0.5752531439065933,14.25,0.0,3.2215118408203125,-0.46384334564208984,-0.5752531439065933,15.25,0.0,3.0519962310791016,-0.030755996704101562,-0.3835020959377289,16.0,0.0,3.0977725982666016,0.038623809814453125,-0.3835020959377289,19.25,0.0,3.255128860473633,-0.286102294921875,0.0,25.75,0.0,3.1696557998657227,-0.09691715240478516,0.0,26.0,,,,,,,,,,,,,,,,,,,,,,,,,,,,,,,,,,,,,,,,
0.0,0.009335110895335674,3.1060099601745605,-0.4100462794303894,0.036057524383068085,-0.4115886092185974,0.03951682150363922,0.038739848881959915,-0.2830542325973511,0.15599173307418823,0.0,3.1353235244750977,-0.732421875,-0.5752531439065933,25.25,0.0,3.201127052307129,-0.9108781814575195,-0.5752531439065933,17.5,0.0,3.1102895736694336,-0.5010366439819336,-0.3835020959377289,25.75,0.0,3.003716468811035,-0.46563148498535156,-0.3835020959377289,21.5,0.0,2.873539924621582,0.06401538848876953,-0.5752531439065933,16.75,0.0,3.2243728637695312,-0.5475282669067383,0.0,26.25,,,,,,,,,,,,,,,,,,,,,,,,,,,,,,,,,,,,,,,,,,,,,
0.0,0.009083125740289688,3.0504167079925537,-0.4337886869907379,0.0346035435795784,-0.46708446741104126,0.008896857500076294,0.03577043488621712,-0.3176037073135376,0.1198253184556961,0.0,3.039121627807617,-1.810312271118164,-0.9587552398443222,13.5,0.0,3.116726875305176,-1.3328790664672852,-0.7670041918754578,20.25,0.0,3.08990478515625,-1.0707378387451172,-0.7670041918754578,23.75,0.0,3.017306327819824,-0.4903078079223633,-0.3835020959377289,24.5,0.0,2.916097640991211,-0.11336803436279297,-0.3835020959377289,27.75,0.0,2.7816295623779297,0.004649162292480469,-0.3835020959377289,14.0,0.0,2.874612808227539,-0.057220458984375,-0.3835020959377289,24.75,0.0,3.113865852355957,-0.20885467529296875,0.0,27.75,,,,,,,,,,,,,,,,,,,,,,,,,,,,,,,,,,,
0.0,0.00880187563598156,2.9694669246673584,-0.4833155572414398,0.032986316829919815,-0.5943638682365417,-0.05755767226219177,0.032857172191143036,-0.4592260420322418,0.06424791365861893,0.0,3.2826662063598633,-2.016305923461914,-0.9587552398443222,13.25,0.0,3.0612945556640625,-1.2674331665039062,-0.7670041918754578,15.75,0.0,2.9990673065185547,-0.9230375289916992,-0.9587552398443222,25.25,0.0,3.0655860900878906,-1.0017156600952148,-0.9587552398443222,24.25,0.0,2.878546714782715,-0.4584789276123047,-0.5752531439065933,22.75,0.0,2.775907516479492,-0.11086463928222656,-0.7670041918754578,24.25,0.0,2.7233362197875977,-0.045418739318847656,-0.7670041918754578,18.75,,,,,,,,,,,,,,,,,,,,,,,,,,,,,,,,,,,,,,,,
0.0,0.008343230932950974,2.8837077617645264,-0.5796545743942261,0.03128470480442047,-0.6834516525268555,-0.20484516024589539,0.030121762305498123,-0.5067136287689209,-0.06354200094938278,0.0,1.7323493957519531,-1.2938976287841797,-0.19175104796886444,21.5,0.0,3.006577491760254,-1.9708871841430664,-1.9175104796886444,12.75,0.0,3.0716657638549805,-1.488804817199707,-0.5752531439065933,15.0,0.0,2.1811723709106445,-0.9187459945678711,-0.19175104796886444,15.5,0.0,3.0040740966796875,-1.1440515518188477,-0.5752531439065933,16.0,0.0,2.90071964263916,-0.9402036666870117,-0.5752531439065933,18.75,0.0,2.8263330459594727,-0.6194114685058594,-0.19175104796886444,22.25,0.0,2.7608871459960938,-0.3687143325805664,-1.1505062878131866,26.0,0.0,2.687215805053711,-0.17309188842773438,-1.1505062878131866,21.5,0.0,1.7670392990112305,-1.296401023864746,0.0,14.0,,,,,,,,,,,,,,,,,,,,,,,,,
0.0,0.007756071165204048,2.784902572631836,-0.696021556854248,0.02939830720424652,-0.7894636392593384,-0.3744027018547058,0.02742500975728035,-0.5723033547401428,-0.19975191354751587,0.0,2.8613805770874023,-1.3478994369506836,-0.19175104796886444,18.25,0.0,3.0115842819213867,-1.5120506286621094,-0.19175104796886444,13.75,0.0,2.8345584869384766,-1.106858253479004,-0.7670041918754578,23.0,0.0,2.1872520446777344,-0.7874965667724609,-2.3010125756263733,14.75,0.0,2.7898550033569336,-1.0271072387695312,-0.19175104796886444,26.0,0.0,2.72369384765625,-0.6551742553710938,-0.19175104796886444,23.5,0.0,2.4486780166625977,-0.3987550735473633,-1.342257335782051,20.25,0.0,2.572774887084961,-0.35691261291503906,-1.342257335782051,23.25,,,,,,,,,,,,,,,,,,,,,,,,,,,,,,,,,,,
0.0,0.0074807219207286835,2.67126202583313,-0.8238898515701294,0.02789190784096718,-0.9005292654037476,-0.5541185140609741,0.02506694383919239,-0.6288458704948425,-0.3382871448993683,0.0,2.6661157608032227,-1.2241601943969727,0.19175104796886444,22.0,0.0,2.697587013244629,-1.319289207458496,0.19175104796886444,20.0,0.0,3.052353858947754,-1.5617609024047852,0.3835020959377289,14.0,0.0,2.561330795288086,-1.132965087890625,0.19175104796886444,23.25,0.0,2.928614616394043,-1.2770891189575195,0.3835020959377289,14.5,0.0,2.1969079971313477,-0.697016716003418,-1.9175104796886444,26.5,0.0,2.274155616760254,-0.6161928176879883,-1.9175104796886444,28.5,0.0,2.4254322052001953,-0.5886554718017578,-1.9175104796886444,24.0,,,,,,,,,,,,,,,,,,,,,,,,,,,,,,,,,,,
0.0,0.007544049993157387,2.5488574504852295,-0.934419572353363,0.026731356978416443,-1.0311222076416016,-0.6773739457130432,0.02298794873058796,-0.7179738879203796,-0.4084753394126892,0.0,2.7723312377929688,-1.5882253646850586,-0.7670041918754578,18.25,0.0,2.7118921279907227,-1.2960433959960938,-0.19175104796886444,16.75,0.0,2.7605295181274414,-1.4333724975585938,-0.9587552398443222,19.75,0.0,2.2687911987304688,-0.9784698486328125,-1.72575943171978,16.0,0.0,2.582073211669922,-1.0775327682495117,-0.19175104796886444,13.75,0.0,2.1146535873413086,-0.698089599609375,-1.1505062878131866,25.0,0.0,2.162933349609375,-0.7270574569702148,-1.1505062878131866,22.75,,,,,,,,,,,,,,,,,,,,,,,,,,,,,,,,,,,,,,,,
0.0,0.007803631946444511,2.4010279178619385,-1.1005803346633911,0.02573668397963047,-1.1991773843765259,-0.8886333703994751,0.02108701691031456,-0.8384132385253906,-0.551097571849823,0.0,2.093195915222168,-1.3579130172729492,-1.5340083837509155,19.0,0.0,1.9562244415283203,-1.064300537109375,-0.5752531439065933,22.0,0.0,2.0252466201782227,-1.215219497680664,-0.5752531439065933,21.75,0.0,2.5413036346435547,-1.5374422073364258,-0.9587552398443222,13.0,0.0,2.684354782104492,-1.5674829483032227,-0.9587552398443222,15.75,0.0,2.7916431427001953,-1.5853643417358398,-1.1505062878131866,13.75,,,,,,,,,,,,,,,,,,,,,,,,,,,,,,,,,,,,,,,,,,,,,
0.0,0.008224565535783768,2.2451930046081543,-1.242637038230896,0.02491525001823902,-1.3400355577468872,-1.0412367582321167,0.019390923902392387,-0.8979317545890808,-0.6392022967338562,0.0,1.977682113647461,-1.3071298599243164,-0.5752531439065933,23.75,0.0,2.086758613586426,-1.3850927352905273,-0.3835020959377289,18.75,0.0,1.8718242645263672,-1.1937618255615234,-0.19175104796886444,23.0,0.0,2.275228500366211,-1.4219284057617188,-1.5340083837509155,14.5,0.0,2.4733543395996094,-1.468062400817871,-1.1505062878131866,13.5,0.0,1.922607421875,-1.1293888092041016,0.0,25.25,,,,,,,,,,,,,,,,,,,,,,,,,,,,,,,,,,,,,,,,,,,,,
0.0,0.00035345752257853746,3.229295253753662,-0.23240536451339722,0.0003915047855116427,-0.3723244071006775,-0.1412164270877838,-6.26916516921483e-05,-0.16576191782951355,-0.28030645847320557,0.0,3.3130645751953125,-1.6175508499145508,-0.19175104796886444,18.25,0.0,3.5573244094848633,-1.0939836502075195,-0.19175104796886444,16.25,0.0,2.979397773742676,0.0768899917602539,-0.3835020959377289,18.0,0.0,3.039121627807617,0.08046627044677734,-0.3835020959377289,29.0,0.0,3.0362606048583984,0.0826120376586914,-0.3835020959377289,30.25,0.0,3.1278133392333984,-0.04291534423828125,-0.3835020959377289,21.5,0.0,3.522634506225586,-1.3082027435302734,0.0,18.75,0.0,3.515481948852539,-0.9176731109619141,0.0,22.5,0.0,2.9779672622680664,0.1634359359741211,0.0,15.0,,,,,,,,,,,,,,,,,,,,,,,,,,,,,,
0.0,0.00030746980337426066,3.2091448307037354,-0.3518446683883667,0.0002856935898307711,-0.35843294858932495,-0.34465235471725464,-0.00012140519538661465,-0.13073942065238953,-0.42891544103622437,0.0,3.360271453857422,-1.3232231140136719,-0.19175104796886444,26.25,0.0,3.359556198120117,-1.5131235122680664,-0.19175104796886444,19.5,0.0,3.336668014526367,-1.1762380599975586,-0.19175104796886444,26.5,0.0,3.245830535888672,-0.5089044570922852,-0.3835020959377289,22.75,0.0,3.119945526123047,-0.11408329010009766,-0.19175104796886444,25.5,0.0,3.0655860900878906,-0.05257129669189453,-0.3835020959377289,21.25,0.0,3.5169124603271484,-1.3282299041748047,0.0,19.75,0.0,3.390669822692871,-0.7005929946899414,0.0,26.0,,,,,,,,,,,,,,,,,,,,,,,,,,,,,,,,,,,
0.0,0.00026268052170053124,3.1552934646606445,-0.29423874616622925,0.00018656373140402138,-0.4067216217517853,-0.226238414645195,-0.00017350708367303014,-0.17600876092910767,-0.29067644476890564,0.0,3.38137149810791,-1.809239387512207,-0.19175104796886444,13.75,0.0,3.1986236572265625,-0.5528926849365234,-0.5752531439065933,18.25,0.0,3.3670663833618164,-0.52642822265625,-0.5752531439065933,15.75,0.0,3.0144453048706055,0.04792213439941406,-0.5752531439065933,22.25,0.0,2.9039382934570312,0.16736984252929688,-0.3835020959377289,21.25,0.0,2.9325485229492188,0.1544952392578125,-0.3835020959377289,25.75,0.0,3.620266914367676,-1.7663240432739258,0.0,15.0,0.0,3.517627716064453,-1.3260841369628906,0.0,19.75,0.0,3.344893455505371,-0.9673833847045898,0.0,25.5,0.0,3.491520881652832,-0.995635986328125,0.0,22.5,,,,,,,,,,,,,,,,,,,,,,,,,
0.0,0.00020842888625338674,3.123871088027954,-0.3463417589664459,8.327101386385038e-05,-0.4122854769229889,-0.302146315574646,-0.00022468021779786795,-0.16699279844760895,-0.3299676775932312,0.0,3.313779830932617,-1.1426210403442383,-0.19175104796886444,15.5,0.0,3.2472610473632812,-0.8203983306884766,-0.19175104796886444,21.0,0.0,3.3162832260131836,-0.903010368347168,-0.19175104796886444,21.75,0.0,3.093123435974121,-0.0457763671875,-0.5752531439065933,19.75,0.0,2.855658531188965,0.14984607696533203,-0.5752531439065933,17.25,0.0,2.9500722885131836,0.1233816146850586,-0.5752531439065933,19.75,0.0,3.5104751586914062,-1.3461112976074219,0.0,19.75,0.0,3.3320188522338867,-1.0285377502441406,0.0,25.5,0.0,3.451824188232422,-1.1365413665771484,0.0,22.25,,,,,,,,,,,,,,,,,,,,,,,,,,,,,,
0.0,0.00014970058691687882,3.0835750102996826,-0.4123553931713104,-1.81493851414416e-05,-0.46269354224205017,-0.38686424493789673,-0.0002721275668591261,-0.2351178228855133,-0.36831754446029663,0.0,3.3588409423828125,-1.5327930450439453,-0.3835020959377289,14.75,0.0,3.349900245666504,-1.2563467025756836,-0.3835020959377289,21.25,0.0,3.214716911315918,-0.9988546371459961,-0.19175104796886444,19.0,0.0,3.3295154571533203,-1.1529922485351562,-0.3835020959377289,22.25,0.0,3.0001401901245117,-0.18024444580078125,-0.7670041918754578,20.5,0.0,2.748727798461914,0.2614259719848633,-0.7670041918754578,13.0,0.0,2.854585647583008,0.14984607696533203,-0.7670041918754578,24.0,0.0,2.879977226257324,0.09226799011230469,-0.7670041918754578,25.25,0.0,3.4879446029663086,-1.373291015625,0.0,19.5,0.0,3.337740898132324,-1.051783561706543,0.0,26.0,0.0,3.4339427947998047,-1.1472702026367188,0.0,22.0,,,,,,,,,,,,,,,,,,,,
0.0,0.00010561997623881325,3.0238585472106934,-0.5072451829910278,-9.430853970116004e-05,-0.5680601000785828,-0.5035040974617004,-0.0003018976130988449,-0.3766515851020813,-0.4241979718208313,0.0,3.38137149810791,-1.6776323318481445,-0.3835020959377289,13.25,0.0,3.300905227661133,-1.3228654861450195,-0.19175104796886444,16.25,0.0,3.223299980163574,-1.165151596069336,-0.7670041918754578,20.5,0.0,3.051638603210449,-0.882267951965332,-0.7670041918754578,20.25,0.0,3.198981285095215,-0.8883476257324219,-0.7670041918754578,20.75,0.0,2.674698829650879,0.012159347534179688,-0.9587552398443222,17.25,0.0,2.751588821411133,-0.007867813110351562,-0.9587552398443222,21.25,0.0,2.8742551803588867,-0.0286102294921875,-1.1505062878131866,18.0,0.0,3.585219383239746,-1.8371343612670898,0.0,14.0,0.0,3.469705581665039,-1.399397850036621,0.0,19.5,0.0,3.31270694732666,-1.1161565780639648,0.0,22.75,0.0,3.2193660736083984,-0.1666545867919922,0.0,25.25,,,,,,,,,,,,,,,
0.0,6.690784357488155e-05,2.9714081287384033,-0.5544857978820801,-0.00015830210759304464,-0.6347748637199402,-0.5252985954284668,-0.00032256366102956235,-0.445182204246521,-0.3964713513851166,0.0,3.2361745834350586,-1.5213489532470703,-0.3835020959377289,20.5,0.0,3.278017044067383,-1.753091812133789,-0.3835020959377289,15.75,0.0,3.265857696533203,-1.0875463485717773,-0.5752531439065933,22.25,0.0,3.240823745727539,-0.8368492126464844,-0.5752531439065933,20.75,0.0,3.175020217895508,-0.5861520767211914,-0.5752531439065933,18.75,0.0,2.911806106567383,-0.4448890686035156,-0.3835020959377289,13.75,0.0,2.5223493576049805,0.1691579818725586,-1.1505062878131866,16.25,0.0,2.592802047729492,0.13947486877441406,-1.1505062878131866,21.5,0.0,2.6460886001586914,0.11444091796875,-0.9587552398443222,19.5,0.0,3.265500068664551,-0.6537437438964844,0.0,20.5,0.0,3.080606460571289,0.0400543212890625,0.0,23.75,0.0,2.933621406555176,0.09870529174804688,0.0,26.0,,,,,,,,,,,,,,,
0.0,3.766208828892559e-05,2.849128246307373,-0.6490126252174377,-0.00020402015070430934,-0.8427079916000366,-0.6110394597053528,-0.00033089006319642067,-0.6853967905044556,-0.41236788034439087,0.0,3.039121627807617,-1.8128156661987305,-0.5752531439065933,20.25,0.0,3.1414031982421875,-1.7316341400146484,-0.5752531439065933,20.0,0.0,3.1996965408325195,-1.8804073333740234,-0.5752531439065933,14.25,0.0,3.0423402786254883,-1.440882682800293,-0.5752531439065933,12.5,0.0,2.968311309814453,-0.9255409240722656,-1.72575943171978,13.25,0.0,2.8034448623657227,-0.7846355438232422,-0.5752531439065933,14.0,0.0,2.430438995361328,-0.41735172271728516,-1.342257335782051,26.25,0.0,2.4383068084716797,-0.4878044128417969,-1.342257335782051,26.5,0.0,2.5659799575805664,-0.43952465057373047,-1.342257335782051,18.5,0.0,2.3717880249023438,-0.12552738189697266,-1.1505062878131866,18.25,0.0,3.0655860900878906,-0.061511993408203125,0.0,17.75,,,,,,,,,,,,,,,,,,,,
0.0,1.3534314348362386e-05,2.7224135398864746,-0.7709130644798279,-0.0002386906126048416,-1.0217233896255493,-0.7389647364616394,-0.0003317796508781612,-0.8445896506309509,-0.4702392816543579,0.0,3.004789352416992,-1.8085241317749023,-0.9587552398443222,14.0,0.0,3.150343894958496,-1.817464828491211,-0.9587552398443222,14.75,0.0,3.2869577407836914,-1.827836036682129,-0.9587552398443222,12.75,0.0,2.350330352783203,-0.8028745651245117,-1.1505062878131866,23.25,0.0,2.4880170822143555,-0.8590221405029297,-1.1505062878131866,17.5,0.0,2.3031234741210938,-0.6351470947265625,-1.1505062878131866,24.75,0.0,2.273082733154297,-0.39374828338623047,-1.1505062878131866,22.0,,,,,,,,,,,,,,,,,,,,,,,,,,,,,,,,,,,,,,,,
0.0,-7.905893653514795e-06,2.5810117721557617,-0.8906506299972534,-0.00026556584634818137,-1.1976107358932495,-0.8470600247383118,-0.0003276225761510432,-0.9721948504447937,-0.5067580342292786,0.0,2.4036169052124023,-1.164078712463379,-1.9175104796886444,16.25,0.0,3.224015235900879,-1.6322135925292969,-0.19175104796886444,12.5,0.0,2.178668975830078,-0.84686279296875,-0.9587552398443222,19.5,0.0,2.31170654296875,-1.0285377502441406,-1.9175104796886444,18.5,0.0,3.1882524490356445,-1.4033317565917969,-0.19175104796886444,12.75,0.0,2.0917654037475586,-0.7374286651611328,-1.1505062878131866,21.5,0.0,3.3391714096069336,-1.6747713088989258,0.0,16.0,,,,,,,,,,,,,,,,,,,,,,,,,,,,,,,,,,,,,,,,
0.0,-2.5763889425434172e-05,2.4268698692321777,-1.0716464519500732,-0.0002839312073774636,-1.364377737045288,-1.0608536005020142,-0.00031836325069889426,-1.0550674200057983,-0.6441546678543091,0.0,2.240896224975586,-1.4630556106567383,0.19175104796886444,16.0,0.0,2.1954774856567383,-1.255631446838379,0.19175104796886444,20.5,0.0,2.989053726196289,-1.685500144958496,-2.3010125756263733,14.0,0.0,2.0831823348999023,-1.0939836502075195,-0.5752531439065933,21.0,0.0,2.7877092361450195,-1.4462471008300781,-2.4927636235952377,13.5,0.0,2.8978586196899414,-1.5496015548706055,-2.3010125756263733,14.5,0.0,2.0062923431396484,-0.904083251953125,-0.5752531439065933,22.5,,,,,,,,,,,,,,,,,,,,,,,,,,,,,,,,,,,,,,,,
0.0,-9.361390311823925e-07,3.0000343322753906,-0.43730419874191284,2.1384375941124745e-06,-0.6355975866317749,-0.15359753370285034,4.655278644349892e-06,-0.2948372960090637,-0.02082117646932602,0.0,3.1642913818359375,-0.9820461273193359,-0.7670041918754578,16.5,0.0,3.2640695571899414,-1.1150836944580078,-0.7670041918754578,16.5,0.0,3.446817398071289,-1.0031461715698242,-0.3835020959377289,14.0,0.0,3.015875816345215,-0.5428791046142578,-0.7670041918754578,17.25,0.0,2.5953054428100586,0.07474422454833984,-0.9587552398443222,12.5,0.0,2.6918649673461914,0.0718832015991211,-0.9587552398443222,23.0,0.0,2.737283706665039,0.030040740966796875,-0.9587552398443222,26.0,0.0,2.825617790222168,-0.03361701965332031,-0.7670041918754578,22.5,0.0,3.3255815505981445,-0.9076595306396484,0.0,23.0,0.0,3.422856330871582,-1.0085105895996094,0.0,20.25,,,,,,,,,,,,,,,,,,,,,,,,,
0.0,-4.889316755907203e-07,2.935943603515625,-0.5005370378494263,2.8759295673808083e-06,-0.6944236159324646,-0.23623032867908478,4.826063104701461e-06,-0.34922823309898376,-0.08610890060663223,0.0,3.3420324325561523,-1.3664960861206055,-0.5752531439065933,14.5,0.0,2.957940101623535,-0.9366273880004883,-0.9587552398443222,17.25,0.0,3.1621456146240234,-0.9444952011108398,-0.5752531439065933,14.5,0.0,3.255486488342285,-1.1790990829467773,-0.5752531439065933,16.25,0.0,3.590226173400879,-1.2173652648925781,-0.9587552398443222,12.5,0.0,2.8499364852905273,-0.3154277801513672,-0.9587552398443222,18.25,0.0,2.637505531311035,-0.10156631469726562,-0.7670041918754578,19.5,0.0,2.722620964050293,-0.22137165069580078,-0.7670041918754578,21.25,0.0,2.5370121002197266,0.039696693420410156,-0.7670041918754578,14.5,0.0,3.3016204833984375,-1.0077953338623047,0.0,22.25,0.0,3.519415855407715,-1.1973381042480469,0.0,15.5,0.0,3.4275054931640625,-0.9927749633789062,0.0,20.75,0.0,2.7140378952026367,0.1659393310546875,0.0,18.0,,,,,,,,,,
0.0,-1.38323883902558e-07,2.8528857231140137,-0.5520485639572144,3.407803205845994e-06,-0.762551486492157,-0.2916223108768463,4.857241492572939e-06,-0.39403292536735535,-0.12389302253723145,0.0,3.040194511413574,-1.4448165893554688,-0.19175104796886444,16.75,0.0,2.9439926147460938,-1.318216323852539,-1.1505062878131866,19.75,0.0,2.9404163360595703,-0.9620189666748047,-1.1505062878131866,23.25,0.0,2.8324127197265625,-0.8103847503662109,-1.1505062878131866,23.75,0.0,2.7140378952026367,-0.28324127197265625,-0.5752531439065933,23.25,0.0,2.533078193664551,0.02181529998779297,-0.5752531439065933,19.0,0.0,2.6013851165771484,-0.06401538848876953,-0.5752531439065933,24.0,0.0,3.51870059967041,-1.2209415435791016,0.0,14.5,0.0,3.177165985107422,-0.8075237274169922,0.0,21.5,0.0,3.420710563659668,-0.985264778137207,0.0,20.25,0.0,3.072381019592285,-0.05507469177246094,0.0,27.0,0.0,2.81524658203125,0.1455545425415039,0.0,23.75,,,,,,,,,,,,,,,
0.0,1.4908295042914688e-07,2.73475980758667,-0.7056013345718384,3.782283556574839e-06,-0.8888269662857056,-0.526778519153595,4.785763394465903e-06,-0.49344903230667114,-0.3156742751598358,0.0,1.9698143005371094,-1.0846853256225586,-0.19175104796886444,20.75,0.0,3.10671329498291,-1.4061927795410156,-0.3835020959377289,13.5,0.0,2.827763557434082,-1.2055635452270508,-1.72575943171978,16.0,0.0,2.962946891784668,-1.3310909271240234,-0.19175104796886444,14.75,0.0,3.105282783508301,-1.405477523803711,-0.3835020959377289,13.5,0.0,2.7791261672973633,-0.9480714797973633,-1.342257335782051,17.5,0.0,2.651810646057129,-0.629425048828125,-1.1505062878131866,19.0,0.0,2.385377883911133,-0.41306018829345703,-0.9587552398443222,24.75,0.0,2.4515390396118164,-0.48744678497314453,-0.9587552398443222,22.75,0.0,1.6733407974243164,-1.4519691467285156,0.0,21.5,0.0,3.5147666931152344,-1.3600587844848633,0.0,14.0,0.0,3.4360885620117188,-0.9402036666870117,0.0,17.0,0.0,3.063797950744629,-0.25963783264160156,0.0,21.25,0.0,2.788424491882324,0.06973743438720703,0.0,24.25,0.0,2.9447078704833984,-0.016808509826660156,0.0,25.25
0.0,4.390667811549065e-07,2.6016979217529297,-0.8244500756263733,4.1022130972123705e-06,-1.0096904039382935,-0.6772724986076355,4.682961389335105e-06,-0.5648094415664673,-0.4195655882358551,0.0,2.465486526489258,-1.1258125305175781,-0.19175104796886444,22.75,0.0,2.5398731231689453,-1.292109489440918,-2.109261527657509,18.0,0.0,2.1779537200927734,-0.8447170257568359,-0.5752531439065933,23.25,0.0,2.234816551208496,-0.8615255355834961,-0.7670041918754578,26.75,0.0,2.350330352783203,-0.9151697158813477,-0.7670041918754578,24.5,0.0,1.7638206481933594,-1.3679265975952148,0.0,22.0,0.0,3.516554832458496,-1.3489723205566406,0.0,13.25,0.0,3.435373306274414,-0.9437799453735352,0.0,16.75,,,,,,,,,,,,,,,,,,,,,,,,,,,,,,,,,,,
0.0,6.741934157616924e-07,2.4366564750671387,-1.0057682991027832,4.2880919863819145e-06,-1.1799290180206299,-0.9228379130363464,4.4990006244916e-06,-0.6837925910949707,-0.5960557460784912,0.0,2.0617246627807617,-1.3725757598876953,-0.9587552398443222,24.25,0.0,2.0470619201660156,-1.1451244354248047,-0.9587552398443222,28.25,0.0,2.2966861724853516,-1.3554096221923828,-0.5752531439065933,20.0,0.0,2.439737319946289,-1.451253890991211,-0.5752531439065933,13.0,0.0,2.0273923873901367,-1.0442733764648438,-0.9587552398443222,27.0,0.0,3.1374692916870117,-1.0689496994018555,0.0,18.25,0.0,3.5791397094726562,-1.1025667190551758,0.0,12.0,0.0,3.011941909790039,-0.8547306060791016,0.0,15.5,0.0,3.2951831817626953,-0.972747802734375,0.0,19.5,0.0,3.427863121032715,-0.9541511535644531,0.0,16.5,,,,,,,,,,,,,,,,,,,,,,,,,
0.0,7.457069983729525e-08,3.1882543563842773,-0.36474165320396423,1.0998034838394233e-07,-0.42314788699150085,-0.4818093180656433,8.886456015488875e-09,-0.4264611303806305,-0.6171953082084656,0.0,3.4568309783935547,-1.6736984252929688,-0.19175104796886444,13.25,0.0,3.613114356994629,-1.7809867858886719,-0.5752531439065933,15.25,0.0,3.419637680053711,-1.0553598403930664,-0.19175104796886444,15.0,0.0,3.2958984375,-0.8064508438110352,-0.19175104796886444,17.25,0.0,3.3538341522216797,-0.8922815322875977,-0.19175104796886444,19.5,0.0,3.1174421310424805,-0.15091896057128906,-0.19175104796886444,13.25,0.0,2.907872200012207,0.06222724914550781,-0.5752531439065933,15.5,0.0,2.808809280395508,0.263214111328125,-0.7670041918754578,15.0,0.0,3.481149673461914,-1.440882682800293,0.0,14.0,0.0,3.255486488342285,-0.37550926208496094,0.0,23.5,0.0,3.02731990814209,0.028967857360839844,0.0,23.25,0.0,3.1081438064575195,-0.013947486877441406,0.0,26.0,,,,,,,,,,,,,,,
0.0,7.063135853968561e-08,3.1486427783966064,-0.5004971027374268,9.310861059930176e-08,-0.4901888370513916,-0.6806678771972656,-1.9598811462628873e-09,-0.47833290696144104,-0.7297407984733582,0.0,3.409266471862793,-1.6665458679199219,0.19175104796886444,13.5,0.0,3.407120704650879,-1.2853145599365234,-0.3835020959377289,13.25,0.0,3.225088119506836,-0.811457633972168,-0.5752531439065933,16.5,0.0,3.317713737487793,-0.9788274765014648,-0.5752531439065933,15.5,0.0,3.131747245788574,-0.44989585876464844,-0.7670041918754578,14.25,0.0,3.542304039001465,-1.2584924697875977,0.0,13.5,0.0,3.806948661804199,-1.3175010681152344,0.0,12.5,0.0,3.103494644165039,-0.014662742614746094,0.0,25.75,,,,,,,,,,,,,,,,,,,,,,,,,,,,,,,,,,,
0.0,5.4840864294192215e-08,3.080514669418335,-0.614156186580658,6.273610608786839e-08,-0.5862408876419067,-0.8191951513290405,-2.0453420290778013e-08,-0.5461382865905762,-0.7802439332008362,0.0,3.257632255554199,-1.4977455139160156,-0.19175104796886444,16.25,0.0,3.3888816833496094,-1.603245735168457,-0.19175104796886444,13.5,0.0,3.222227096557617,-1.1769533157348633,-0.3835020959377289,18.5,0.0,3.045201301574707,-0.7030963897705078,-0.3835020959377289,17.75,0.0,3.2029151916503906,-0.8890628814697266,-0.3835020959377289,20.5,0.0,2.725839614868164,-0.2338886260986328,-0.7670041918754578,18.75,0.0,2.764105796813965,-0.1856088638305664,-0.7670041918754578,24.5,0.0,2.8334856033325195,-0.17631053924560547,-0.7670041918754578,21.25,0.0,3.437161445617676,-1.5685558319091797,0.0,12.75,0.0,3.711104393005371,-1.5671253204345703,0.0,12.75,0.0,3.0995607376098633,-0.036835670471191406,0.0,25.25,,,,,,,,,,,,,,,,,,,,
0.0,4.4817937805419206e-08,3.015130043029785,-0.6940978169441223,4.075900861266746e-08,-0.6730783581733704,-0.8756983280181885,-3.2850902442760344e-08,-0.6032871007919312,-0.7534318566322327,0.0,3.2758712768554688,-1.282811164855957,-0.3835020959377289,17.75,0.0,3.2036304473876953,-0.9816884994506836,-0.5752531439065933,24.75,0.0,3.219723701477051,-1.1293888092041016,-0.3835020959377289,22.75,0.0,3.1270980834960938,-0.789642333984375,-0.5752531439065933,20.25,0.0,2.715468406677246,-0.31578540802001953,-0.7670041918754578,21.0,0.0,2.897500991821289,-0.2961158752441406,-0.7670041918754578,16.75,0.0,2.6764869689941406,-0.2535581588745117,-0.7670041918754578,18.0,0.0,3.3981800079345703,-1.6325712203979492,0.0,13.25,,,,,,,,,,,,,,,,,,,,,,,,,,,,,,,,,,,
0.0,3.368399603687067e-08,2.9234063625335693,-0.8208689093589783,1.8473928165008147e-08,-0.83064204454422,-0.9868455529212952,-4.492500238484354e-08,-0.7591639161109924,-0.7628477811813354,0.0,3.258347511291504,-1.8421411514282227,-1.1505062878131866,13.5,0.0,3.232598304748535,-1.5996694564819336,-0.5752531439065933,16.5,0.0,3.163576126098633,-1.3604164123535156,-0.5752531439065933,17.25,0.0,3.152132034301758,-1.010298728942871,-0.5752531439065933,18.0,0.0,3.055572509765625,-0.9076595306396484,-0.7670041918754578,17.25,0.0,2.4930238723754883,-0.5564689636230469,-0.9587552398443222,12.75,0.0,2.55739688873291,-0.5815029144287109,-0.9587552398443222,19.75,0.0,2.6339292526245117,-0.5257129669189453,-0.9587552398443222,18.5,0.0,2.866029739379883,-0.5096197128295898,-0.5752531439065933,14.5,,,,,,,,,,,,,,,,,,,,,,,,,,,,,,
0.0,2.5625247701555054e-08,2.832390546798706,-0.7926636934280396,1.449866893210583e-09,-0.9285904169082642,-0.8017311692237854,-5.292469396067645e-08,-0.8126460909843445,-0.5139155387878418,0.0,3.1957626342773438,-1.5581846237182617,-0.9587552398443222,12.75,0.0,3.101348876953125,-1.1951923370361328,-0.5752531439065933,16.0,0.0,3.1507015228271484,-1.3468265533447266,-0.5752531439065933,16.25,0.0,3.0083656311035156,-1.0281801223754883,-0.5752531439065933,12.5,0.0,2.593517303466797,-0.38802623748779297,-1.1505062878131866,16.75,0.0,2.4154186248779297,-0.10335445404052734,-1.1505062878131866,22.5,0.0,2.4847984313964844,-0.22029876708984375,-1.1505062878131866,22.25,0.0,2.329587936401367,-0.03218650817871094,-0.9587552398443222,18.5,,,,,,,,,,,,,,,,,,,,,,,,,,,,,,,,,,,
0.0,1.8781213029228638e-08,2.6804447174072266,-0.8634999394416809,-1.2750544620132587e-08,-1.1824649572372437,-0.7847369313240051,-5.8815089687414e-08,-1.0770862102508545,-0.4107576310634613,0.0,2.9300451278686523,-1.6425848007202148,-1.9175104796886444,14.25,0.0,2.8814077377319336,-1.375436782836914,-1.72575943171978,15.75,0.0,2.902865409851074,-1.4984607696533203,-1.72575943171978,17.75,0.0,2.393960952758789,-0.8322000503540039,-1.1505062878131866,21.0,0.0,2.549886703491211,-0.7871389389038086,-1.1505062878131866,19.0,0.0,2.743363380432129,-1.0188817977905273,-1.5340083837509155,12.0,0.0,2.3374557495117188,-0.4888772964477539,-1.1505062878131866,21.25,0.0,2.280592918395996,-0.36156177520751953,-1.1505062878131866,18.75,,,,,,,,,,,,,,,,,,,,,,,,,,,,,,,,,,,
0.0,1.2858221154488092e-08,2.5064926147460938,-1.0188724994659424,-2.451391978297579e-08,-1.3994040489196777,-0.9571535587310791,-6.270982311207263e-08,-1.207090139389038,-0.5175530910491943,0.0,2.1893978118896484,-1.1948347091674805,-0.19175104796886444,21.5,0.0,2.3206472396850586,-1.406550407409668,-0.19175104796886444,15.75,0.0,2.8302669525146484,-1.5521049499511719,-2.8762657195329666,14.25,0.0,2.615690231323242,-1.361846923828125,-2.109261527657509,14.5,0.0,2.751588821411133,-1.4094114303588867,-2.109261527657509,16.0,0.0,2.0685195922851562,-0.8307695388793945,-0.9587552398443222,25.0,0.0,2.150416374206543,-0.903010368347168,-0.9587552398443222,24.25,,,,,,,,,,,,,,,,,,,,,,,,,,,,,,,,,,,,,,,,
0.0,7.593586204279745e-09,2.3264336585998535,-1.14828622341156,-3.422991667889619e-08,-1.5603772401809692,-1.0807650089263916,-6.498343196881251e-08,-1.2303346395492554,-0.5912346839904785,0.0,2.4046897888183594,-1.5621185302734375,-1.9175104796886444,14.25,0.0,2.038121223449707,-1.1565685272216797,0.19175104796886444,22.0,0.0,2.2040605545043945,-1.2384653091430664,-0.19175104796886444,19.5,0.0,2.333521842956543,-1.3625621795654297,-1.72575943171978,14.75,0.0,1.943349838256836,-0.9047985076904297,-0.5752531439065933,23.75,0.0,1.8818378448486328,-0.7581710815429688,-0.5752531439065933,16.25,0.0,3.1707286834716797,-1.2924671173095703,0.0,15.75,0.0,2.1883249282836914,-0.4824399948120117,0.0,17.0,,,,,,,,,,,,,,,,,,,,,,,,,,,,,,,,,,,
0.0,2.992296410653239e-09,2.1552438735961914,-1.274736762046814,-4.1943486905893224e-08,-1.6715084314346313,-1.1931641101837158,-6.578697053782889e-08,-1.19035005569458,-0.6601681709289551,0.0,2.0742416381835938,-1.3518333435058594,-0.19175104796886444,19.25,0.0,1.9894838333129883,-1.2524127960205078,-0.19175104796886444,22.5,0.0,1.8821954727172852,-0.9580850601196289,-0.19175104796886444,13.25,0.0,1.9676685333251953,-1.044631004333496,-0.19175104796886444,22.0,0.0,1.9043684005737305,-1.1737346649169922,0.0,24.0,0.0,3.2265186309814453,-1.5860795974731445,0.0,13.25,0.0,3.179311752319336,-1.2634992599487305,0.0,15.75,,,,,,,,,,,,,,,,,,,,,,,,,,,,,,,,,,,,,,,,
0.0,-1.5227938909845307e-09,2.006958484649658,-1.3828821182250977,-4.855439783568727e-08,-1.7224987745285034,-1.2553672790527344,-6.580098954600544e-08,-1.098433256149292,-0.6791863441467285,0.0,1.936197280883789,-1.1129379272460938,0.19175104796886444,18.25,0.0,2.0552873611450195,-1.1258125305175781,0.19175104796886444,17.0,0.0,2.123594284057617,-1.3332366943359375,-0.3835020959377289,14.75,0.0,1.8750429153442383,-1.2198686599731445,0.0,23.75,0.0,3.246188163757324,-1.541733741760254,0.0,12.5,0.0,3.196835517883301,-1.1916160583496094,0.0,15.25,0.0,3.12960147857666,-1.0700225830078125,0.0,16.5,,,,,,,,,,,,,,,,,,,,,,,,,,,,,,,,,,,,,,,,
0.0,-7.02979507938295e-10,3.1157703399658203,-0.18559646606445312,1.0142228723530877e-10,-0.35452571511268616,-0.3187655806541443,1.2256804460264448e-09,-0.21323561668395996,-0.5025384426116943,0.0,3.3445358276367188,-0.7914304733276367,-0.5752531439065933,20.0,0.0,3.252267837524414,-0.6068944931030273,-0.3835020959377289,21.25,0.0,3.1070709228515625,-0.42057037353515625,-0.3835020959377289,18.75,0.0,2.910733222961426,0.07259845733642578,-0.5752531439065933,13.5,0.0,2.9729604721069336,-0.04756450653076172,-0.3835020959377289,19.25,0.0,3.3692121505737305,-0.653386116027832,0.0,22.0,0.0,3.206491470336914,-0.12123584747314453,0.0,25.0,,,,,,,,,,,,,,,,,,,,,,,,,,,,,,,,,,,,,,,,
0.0,-5.234719324676007e-10,3.077529191970825,-0.25854140520095825,4.239405493322579e-10,-0.38008710741996765,-0.4344465732574463,1.347689737585256e-09,-0.21853961050510406,-0.557343065738678,0.0,3.285527229309082,-1.1379718780517578,-0.19175104796886444,13.75,0.0,3.102421760559082,-0.9037256240844727,-0.3835020959377289,15.75,0.0,3.036618232727051,-0.10335445404052734,-0.3835020959377289,19.75,0.0,2.884984016418457,0.008225440979003906,-0.3835020959377289,17.0,0.0,2.9550790786743164,-0.016808509826660156,-0.3835020959377289,21.0,0.0,3.2340288162231445,1.6611814498901367,-0.3835020959377289,13.5,0.0,3.178238868713379,-0.1537799835205078,0.0,23.25,,,,,,,,,,,,,,,,,,,,,,,,,,,,,,,,,,,,,,,,
0.0,-3.66104951909918e-10,3.0253326892852783,-0.3996685743331909,6.934827156968026e-10,-0.457295298576355,-0.6470734477043152,1.4311890561558016e-09,-0.30061089992523193,-0.6854890584945679,0.0,2.9969215393066406,-1.931905746459961,-0.5752531439065933,12.25,0.0,3.2061338424682617,-1.0800361633300781,-0.5752531439065933,17.5,0.0,3.1528472900390625,-0.7731914520263672,-0.5752531439065933,21.5,0.0,2.957940101623535,-0.5060434341430664,-0.5752531439065933,21.0,0.0,3.035902976989746,-0.6709098815917969,-0.7670041918754578,21.75,0.0,2.8846263885498047,-0.1577138900756836,-0.5752531439065933,15.25,0.0,3.3184289932250977,-0.858306884765625,0.0,19.25,0.0,3.18145751953125,-0.35369396209716797,0.0,24.0,,,,,,,,,,,,,,,,,,,,,,,,,,,,,,,,,,,
0.0,-2.2292451218319798e-10,2.9456114768981934,-0.45428532361984253,9.189649596841321e-10,-0.5613112449645996,-0.6861082315444946,1.4820925597902601e-09,-0.39261889457702637,-0.6551610827445984,0.0,3.005504608154297,-1.008152961730957,-0.7670041918754578,16.0,0.0,2.8907060623168945,-0.8536577224731445,-0.9587552398443222,21.75,0.0,2.8592348098754883,-0.4159212112426758,-0.5752531439065933,25.25,0.0,2.809882164001465,-0.17702579498291016,-0.5752531439065933,24.25,0.0,2.722620964050293,0.0050067901611328125,-0.5752531439065933,18.5,0.0,3.173947334289551,-0.37658214569091797,0.0,24.25,,,,,,,,,,,,,,,,,,,,,,,,,,,,,,,,,,,,,,,,,,,,,
0.0,-8.587136557380859e-11,2.8795571327209473,-0.5781475305557251,1.1151352063976105e-09,-0.6523140072822571,-0.8316041827201843,1.5121067731271864e-09,-0.4744749069213867,-0.7154262065887451,0.0,1.683354377746582,-1.2792348861694336,-0.19175104796886444,18.25,0.0,3.126382827758789,-1.7534494400024414,-0.19175104796886444,14.5,0.0,3.0373334884643555,-1.5027523040771484,-0.19175104796886444,18.5,0.0,3.442525863647461,-1.5867948532104492,-0.7670041918754578,13.5,0.0,2.986907958984375,-1.306772232055664,-0.19175104796886444,20.5,0.0,2.910733222961426,-0.9441375732421875,-0.5752531439065933,18.75,0.0,2.799868583679199,-0.6766319274902344,-0.5752531439065933,24.5,0.0,2.762317657470703,-0.274658203125,-0.9587552398443222,28.25,0.0,2.705097198486328,-0.0972747802734375,-0.9587552398443222,24.5,0.0,2.56955623626709,0.04363059997558594,-0.7670041918754578,13.75,0.0,1.7580986022949219,-1.335740089416504,0.0,14.0,0.0,1.8754005432128906,-1.4297962188720703,0.0,13.0,0.0,3.007650375366211,-1.64794921875,0.0,15.5,0.0,3.342747688293457,-1.382589340209961,0.0,14.5,,,,,
0.0,1.835556012741435e-11,2.780756950378418,-0.7181734442710876,1.2466644383479775e-09,-0.7927265763282776,-0.9817148447036743,1.4997985076092846e-09,-0.6009291410446167,-0.7705408930778503,0.0,2.9071569442749023,-1.718759536743164,-0.7670041918754578,13.25,0.0,2.8635263442993164,-1.3797283172607422,-0.3835020959377289,17.25,0.0,2.751588821411133,-1.0843276977539062,-0.19175104796886444,25.5,0.0,2.811312675476074,-1.1783838272094727,-0.19175104796886444,22.75,0.0,2.7097463607788086,-0.6340742111206055,-1.342257335782051,23.25,0.0,2.4994611740112305,-0.33795833587646484,-1.342257335782051,18.0,0.0,2.5953054428100586,-0.3300905227661133,-1.342257335782051,22.25,0.0,3.0394792556762695,-1.5420913696289062,0.0,16.25,0.0,3.1746625900268555,-1.6651153564453125,0.0,14.25,0.0,2.2176504135131836,-0.9012222290039062,0.0,16.75,,,,,,,,,,,,,,,,,,,,,,,,,
0.0,9.653906146711577e-11,2.6525461673736572,-0.863297700881958,1.3245269325778963e-09,-0.9868226647377014,-1.1076200008392334,1.4535861403430772e-09,-0.7842897772789001,-0.7891514897346497,0.0,2.772688865661621,-1.289963722229004,0.3835020959377289,21.5,0.0,2.91287899017334,-1.3403892517089844,0.19175104796886444,19.0,0.0,2.135753631591797,-0.8987188339233398,-1.9175104796886444,19.5,0.0,2.709031105041504,-1.124739646911621,-1.1505062878131866,24.0,0.0,3.095269203186035,-1.2888908386230469,0.19175104796886444,14.5,0.0,2.307772636413574,-0.7292032241821289,-1.9175104796886444,22.5,0.0,2.624630928039551,-0.9520053863525391,-1.1505062878131866,24.0,0.0,2.4869441986083984,-0.6988048553466797,-1.9175104796886444,22.25,0.0,1.8743276596069336,-1.222372055053711,0.0,25.0,0.0,3.0666589736938477,-1.4516115188598633,0.0,17.75,0.0,3.1567811965942383,-1.6629695892333984,0.0,14.0,0.0,3.0716657638549805,-1.0389089584350586,0.0,19.25,,,,,,,,,,,,,,,
0.0,1.644230029906879e-10,2.5371081829071045,-0.987527072429657,1.3740145687890504e-09,-1.092745304107666,-1.1995214223861694,1.3918766139653371e-09,-0.8172647953033447,-0.7966759204864502,0.0,2.696871757507324,-1.2456178665161133,0.19175104796886444,16.0,0.0,2.7626752853393555,-1.4051198959350586,0.19175104796886444,18.75,0.0,2.9178857803344727,-1.337885856628418,-0.3835020959377289,17.25,0.0,2.5058984756469727,-1.021742820739746,-0.3835020959377289,16.75,0.0,3.1185150146484375,-1.292109489440918,-0.3835020959377289,13.0,0.0,2.1457672119140625,-0.7367134094238281,-0.7670041918754578,28.0,0.0,2.1886825561523438,-0.8007287979125977,-1.342257335782051,28.75,0.0,2.3031234741210938,-0.8232593536376953,-1.342257335782051,23.5,0.0,1.976609230041504,-1.1168718338012695,0.0,26.0,0.0,3.030538558959961,-1.5374422073364258,0.0,18.0,0.0,3.0448436737060547,-1.1508464813232422,0.0,19.5,,,,,,,,,,,,,,,,,,,,
0.0,2.3990090469716563e-10,2.4168407917022705,-1.164088249206543,1.421052275851764e-09,-1.1595367193222046,-1.3984720706939697,1.33260902313026e-09,-0.7722843289375305,-0.9229469299316406,0.0,2.079606056213379,-1.3546943664550781,-0.19175104796886444,20.0,0.0,2.286672592163086,-1.4079809188842773,-0.19175104796886444,14.25,0.0,3.0101537704467773,-1.6515254974365234,-0.19175104796886444,13.0,0.0,2.11179256439209,-0.9695291519165039,0.7670041918754578,23.25,0.0,2.9382705688476562,-1.489877700805664,-0.19175104796886444,13.0,0.0,2.076387405395508,-0.8368492126464844,-0.7670041918754578,23.75,0.0,2.0220279693603516,-1.0371208190917969,0.0,26.0,0.0,3.056645393371582,-1.4204978942871094,0.0,17.75,0.0,3.016948699951172,-1.210927963256836,0.0,19.75,,,,,,,,,,,,,,,,,,,,,,,,,,,,,,
0.0,2.7869789809287226e-10,2.2806360721588135,-1.246105670928955,1.4000680614856265e-09,-1.2709050178527832,-1.356598973274231,1.230075374891726e-09,-0.8239948153495789,-0.7839874029159546,0.0,1.9780397415161133,-1.1444091796875,-0.5752531439065933,21.25,0.0,2.1997690200805664,-1.248478889465332,-1.342257335782051,18.25,0.0,1.9129514694213867,-0.9366273880004883,-0.5752531439065933,13.5,0.0,1.9222497940063477,-0.9777545928955078,-0.5752531439065933,27.0,0.0,2.4243593215942383,-1.237034797668457,-0.19175104796886444,13.5,0.0,2.614617347717285,-1.2491941452026367,-0.19175104796886444,13.5,0.0,2.727627754211426,-1.3875961303710938,-1.342257335782051,12.75,0.0,2.690434455871582,-1.2377500534057617,0.0,16.75,0.0,3.05020809173584,-1.4355182647705078,0.0,17.75,0.0,3.001570701599121,-1.2542009353637695,0.0,19.5,,,,,,,,,,,,,,,,,,,,,,,,,
0.0,-4.876884052845698e-12,3.097759485244751,-0.46649014949798584,-1.0150472476433414e-11,-0.45078280568122864,-0.05986770987510681,-3.232336924161028e-12,-0.1769256591796875,0.12787289917469025,0.0,3.013014793395996,-1.0292530059814453,-0.5752531439065933,21.5,0.0,3.192901611328125,-1.1647939682006836,-0.5752531439065933,17.25,0.0,2.9611587524414062,-0.43773651123046875,-0.3835020959377289,28.75,0.0,2.9021501541137695,-0.16129016876220703,-0.3835020959377289,26.5,0.0,2.9343366622924805,-0.2721548080444336,-0.3835020959377289,31.25,0.0,2.795577049255371,0.05078315734863281,-0.7670041918754578,13.75,0.0,3.3184289932250977,-0.9058713912963867,0.0,23.0,,,,,,,,,,,,,,,,,,,,,,,,,,,,,,,,,,,,,,,,
0.0,-4.428572959735977e-12,3.0324862003326416,-0.4957822263240814,-8.533574888391904e-12,-0.5134350657463074,-0.08626240491867065,-2.023416373689302e-12,-0.23448804020881653,0.09766160696744919,0.0,3.074169158935547,-0.9523630142211914,-0.7670041918754578,27.25,0.0,3.133535385131836,-1.1154413223266602,-0.7670041918754578,18.75,0.0,2.9979944229125977,-0.7774829864501953,-0.3835020959377289,29.0,0.0,2.933979034423828,-0.3737211227416992,-0.5752531439065933,28.75,0.0,2.864241600036621,-0.12123584747314453,-0.5752531439065933,25.75,0.0,2.767324447631836,0.019669532775878906,-0.5752531439065933,16.75,0.0,3.278374671936035,-0.8769035339355469,0.0,22.5,,,,,,,,,,,,,,,,,,,,,,,,,,,,,,,,,,,,,,,,
0.0,-3.94675741741124e-12,2.9549167156219482,-0.5746360421180725,-6.96683813070087e-12,-0.5908710360527039,-0.19807389378547668,-9.163957570210157e-13,-0.2979336380958557,-0.003864094614982605,0.0,3.088831901550293,-1.433730125427246,-1.1505062878131866,14.75,0.0,2.8742551803588867,-1.0803937911987305,-0.5752531439065933,24.0,0.0,3.0030012130737305,-1.142263412475586,0.19175104796886444,18.25,0.0,2.8345584869384766,-0.7359981536865234,-0.7670041918754578,24.75,0.0,2.7698278427124023,-0.2650022506713867,-0.7670041918754578,24.75,0.0,2.6922225952148438,-0.1348257064819336,-0.7670041918754578,21.0,0.0,3.4579038619995117,-0.9781122207641602,0.0,18.25,,,,,,,,,,,,,,,,,,,,,,,,,,,,,,,,,,,,,,,,
0.0,-3.2791651338737182e-12,2.8433146476745605,-0.6293535828590393,-5.228350738462062e-12,-0.789487898349762,-0.23792007565498352,2.5968886329524876e-13,-0.5552241802215576,-0.01231597363948822,0.0,3.0062198638916016,-1.946568489074707,-2.3010125756263733,13.75,0.0,3.0019283294677734,-1.5860795974731445,-2.3010125756263733,17.0,0.0,2.993345260620117,-1.2137889862060547,-1.1505062878131866,19.25,0.0,2.830624580383301,-0.8625984191894531,-0.9587552398443222,23.75,0.0,2.901792526245117,-1.0575056076049805,-1.1505062878131866,22.75,0.0,2.7462244033813477,-0.40519237518310547,-0.9587552398443222,23.0,0.0,2.5370121002197266,-0.11229515075683594,-1.342257335782051,13.75,0.0,2.6503801345825195,-0.19347667694091797,-1.342257335782051,20.75,0.0,2.6865005493164062,-0.05614757537841797,0.0,20.75,,,,,,,,,,,,,,,,,,,,,,,,,,,,,,
0.0,-2.4960070902496634e-12,2.74495530128479,-0.7112170457839966,-3.4689191623360482e-12,-0.9048330187797546,-0.3329913020133972,1.3623711533905514e-12,-0.6461676955223083,-0.08390434831380844,0.0,2.797722816467285,-1.2706518173217773,-1.1505062878131866,24.0,0.0,3.188967704772949,-1.5152692794799805,-0.7670041918754578,12.0,0.0,2.7326345443725586,-1.085042953491211,-1.1505062878131866,27.0,0.0,2.9189586639404297,-1.3200044631958008,0.3835020959377289,20.75,0.0,3.0727386474609375,-1.3679265975952148,0.3835020959377289,16.75,0.0,2.339601516723633,-0.5185604095458984,-1.72575943171978,13.25,0.0,2.663254737854004,-0.47707557678222656,-1.342257335782051,27.75,0.0,2.5223493576049805,-0.32150745391845703,-1.342257335782051,24.25,0.0,2.577066421508789,-0.3218650817871094,-1.342257335782051,29.75,0.0,1.793503761291504,-1.3267993927001953,0.0,21.5,,,,,,,,,,,,,,,,,,,,,,,,,
0.0,-2.0093354063943636e-12,2.6615705490112305,-0.8780429363250732,-2.226212703765329e-12,-0.8927181959152222,-0.6089329719543457,2.0590118152141734e-12,-0.4924423098564148,-0.3503032922744751,0.0,2.96938419342041,-1.668691635131836,0.19175104796886444,13.25,0.0,2.3185014724731445,-0.8883476257324219,-0.19175104796886444,24.25,0.0,2.610325813293457,-0.973820686340332,-0.3835020959377289,18.5,0.0,2.783060073852539,-1.1583566665649414,0.3835020959377289,22.75,0.0,2.793431282043457,-1.2148618698120117,0.3835020959377289,23.5,0.0,2.8924942016601562,-1.2563467025756836,0.3835020959377289,17.0,0.0,2.208709716796875,-0.7735490798950195,-1.1505062878131866,19.75,0.0,2.2705793380737305,-0.8379220962524414,-0.9587552398443222,26.0,0.0,1.925826072692871,-1.2145042419433594,0.0,22.5,0.0,3.178238868713379,-1.6433000564575195,0.0,12.25,,,,,,,,,,,,,,,,,,,,,,,,,
0.0,-1.655516002063706e-12,2.5509848594665527,-1.0322219133377075,-1.2420403247559442e-12,-0.966302752494812,-0.8217010498046875,2.5666914340444213e-12,-0.5000880360603333,-0.5188473463058472,0.0,2.326369285583496,-1.3060569763183594,-1.1505062878131866,15.0,0.0,2.1522045135498047,-0.9913444519042969,-0.19175104796886444,23.5,0.0,2.2237300872802734,-1.1301040649414062,-0.3835020959377289,21.5,0.0,2.805948257446289,-1.4837980270385742,-0.3835020959377289,15.0,0.0,2.9439926147460938,-1.4641284942626953,-0.3835020959377289,17.75,0.0,2.9772520065307617,-1.5785694122314453,-0.3835020959377289,15.0,0.0,2.08890438079834,-0.7985830307006836,-0.5752531439065933,22.5,0.0,1.8818378448486328,-1.2595653533935547,0.0,22.0,0.0,3.130674362182617,-1.6865730285644531,0.0,13.0,0.0,3.123164176940918,-1.303553581237793,0.0,16.75,0.0,3.062725067138672,-1.0646581649780273,0.0,19.0,0.0,2.890348434448242,-0.2893209457397461,0.0,22.0,,,,,,,,,,,,,,,
0.0,-1.2665890471857955e-12,2.458650588989258,-1.1945080757141113,-2.8756858005962727e-13,-0.9801602959632874,-1.0431338548660278,3.024514232813358e-12,-0.42526984214782715,-0.6981832981109619,0.0,2.2906064987182617,-1.4941692352294922,-0.3835020959377289,17.75,0.0,2.2040605545043945,-1.3318061828613281,0.7670041918754578,21.0,0.0,2.555966377258301,-1.3850927352905273,-1.1505062878131866,16.25,0.0,2.1615028381347656,-1.101851463317871,0.7670041918754578,20.25,0.0,2.750873565673828,-1.3575553894042969,-0.7670041918754578,15.75,0.0,2.9314756393432617,-1.3804435729980469,-0.7670041918754578,13.75,0.0,3.0874013900756836,-1.4494657516479492,-0.19175104796886444,12.25,0.0,2.052783966064453,-0.8171796798706055,-0.19175104796886444,17.25,0.0,2.846360206604004,-0.45168399810791016,0.0,19.5,,,,,,,,,,,,,,,,,,,,,,,,,,,,,,
0.0,-1.0371616759874414e-12,2.343539237976074,-1.2566031217575073,3.5567742869870023e-13,-1.062868356704712,-1.0071423053741455,3.2546686699885807e-12,-0.49107903242111206,-0.5803722143173218,0.0,2.2122859954833984,-1.2227296829223633,-0.5752531439065933,19.25,0.0,2.3152828216552734,-1.3364553451538086,-1.342257335782051,14.0,0.0,2.6636123657226562,-1.5174150466918945,-1.1505062878131866,12.25,0.0,2.138972282409668,-1.0743141174316406,-0.5752531439065933,20.0,0.0,2.0717382431030273,-0.9105205535888672,-0.5752531439065933,18.25,0.0,2.9032230377197266,-1.095414161682129,0.0,18.0,0.0,2.786993980407715,-0.8100271224975586,0.0,17.5,,,,,,,,,,,,,,,,,,,,,,,,,,,,,,,,,,,,,,,,
0.0,-8.104198193602252e-13,2.2336442470550537,-1.291969656944275,9.270401286898267e-13,-1.0968873500823975,-0.9417563080787659,3.418463428994656e-12,-0.46899181604385376,-0.4704110622406006,0.0,1.8703937530517578,-0.9073019027709961,-0.3835020959377289,16.75,0.0,1.953721046447754,-0.9148120880126953,-0.3835020959377289,23.0,0.0,2.0874738693237305,-0.9992122650146484,-0.3835020959377289,19.25,0.0,2.2155046463012695,-1.1597871780395508,-0.7670041918754578,16.75,0.0,3.0373334884643555,-1.523137092590332,0.0,15.5,0.0,2.845644950866699,-1.1701583862304688,0.0,18.25,0.0,2.7827024459838867,-0.8304119110107422,0.0,18.0,,,,,,,,,,,,,,,,,,,,,,,,,,,,,,,,,,,,,,,,
0.0,-5.681039406263411e-13,2.1002275943756104,-1.3638720512390137,1.4556402957999204e-12,-1.1720268726348877,-0.9471544027328491,3.5438331956461067e-12,-0.49331995844841003,-0.4338929057121277,0.0,1.9301176071166992,-1.3114213943481445,-0.9587552398443222,15.5,0.0,2.0935535430908203,-1.3918876647949219,-0.9587552398443222,14.25,0.0,1.7434358596801758,-1.0532140731811523,0.19175104796886444,16.0,0.0,1.8156766891479492,-1.1154413223266602,-0.19175104796886444,18.5,0.0,1.888275146484375,-1.1876821517944336,0.0,26.5,,,,,,,,,,,,,,,,,,,,,,,,,,,,,,,,,,,,,,,,,,,,,,,,,,
0.0,-3.110957672025627e-13,2.0069222450256348,-1.4250249862670898,1.9417106811303597e-12,-1.1418722867965698,-0.9551506638526917,3.629116755374251e-12,-0.38219332695007324,-0.4330419600009918,0.0,1.7641782760620117,-1.1597871780395508,0.19175104796886444,20.0,0.0,1.8153190612792969,-1.201629638671875,0.19175104796886444,24.5,0.0,1.9873380661010742,-1.1959075927734375,-0.19175104796886444,21.75,0.0,2.215147018432617,-1.0968446731567383,-0.19175104796886444,18.75,0.0,1.9347667694091797,-1.0854005813598633,0.0,26.5,0.0,3.036975860595703,-1.5453100204467773,0.0,14.5,,,,,,,,,,,,,,,,,,,,,,,,,,,,,,,,,,,,,,,,,,,,,
0.0,-6.567633264488448e-14,1.9124407768249512,-1.4565635919570923,2.3496345927936924e-12,-1.1153299808502197,-0.8986665606498718,3.657093725073501e-12,-0.299698144197464,-0.36282259225845337,0.0,1.67083740234375,-1.1211633682250977,-0.19175104796886444,12.25,0.0,1.7566680908203125,-1.1883974075317383,-0.19175104796886444,21.75,0.0,1.7867088317871094,-1.2180805206298828,-0.19175104796886444,27.25,0.0,1.8543004989624023,-1.2745857238769531,-0.19175104796886444,21.75,0.0,2.091050148010254,-1.267075538635254,-0.19175104796886444,14.75,0.0,1.9150972366333008,-1.1250972747802734,0.0,27.5,0.0,2.8492212295532227,-1.2903213500976562,0.0,15.0,,,,,,,,,,,,,,,,,,,,,,,,,,,,,,,,,,,,,,,,
0.0,-4.088988025399091e-16,2.9866230487823486,-0.28972503542900085,-5.36432635880608e-16,-0.16510798037052155,0.07627919316291809,4.359092273899706e-17,0.05421213060617447,0.04765620827674866,0.0,3.4525394439697266,-2.075314521789551,-0.19175104796886444,13.0,0.0,3.258347511291504,-1.5234947204589844,-0.19175104796886444,21.75,0.0,3.311276435852051,-1.726984977722168,-0.3835020959377289,18.0,0.0,3.0444860458374023,-1.0986328125,-0.19175104796886444,20.25,0.0,3.1442642211914062,-1.1179447174072266,-0.19175104796886444,24.0,0.0,3.2318830490112305,-1.190185546875,-0.19175104796886444,22.75,0.0,2.9468536376953125,-0.4470348358154297,-0.3835020959377289,14.0,0.0,2.58636474609375,0.4105567932128906,-0.3835020959377289,18.75,0.0,2.6324987411499023,0.4162788391113281,-0.3835020959377289,16.75,0.0,3.3849477767944336,-1.5985965728759766,0.0,16.75,0.0,2.7136802673339844,0.377655029296875,0.0,15.0,,,,,,,,,,,,,,,,,,,,
0.0,-3.217453591354276e-16,2.966010570526123,-0.33089035749435425,-3.465541071275588e-16,-0.20942363142967224,0.004278369247913361,1.640021089657938e-16,-0.03958558291196823,-0.010795891284942627,0.0,3.1338930130004883,-1.965165138244629,-0.19175104796886444,15.0,0.0,3.288745880126953,-1.4476776123046875,-0.19175104796886444,20.25,0.0,3.1943321228027344,-0.9573698043823242,-0.3835020959377289,20.5,0.0,3.2848119735717773,-1.120448112487793,-0.19175104796886444,20.0,0.0,2.987980842590332,-0.6862878799438477,-0.3835020959377289,17.5,0.0,2.8127431869506836,0.07832050323486328,-0.5752531439065933,27.0,0.0,2.749800682067871,0.12195110321044922,-0.5752531439065933,22.5,0.0,2.7898550033569336,0.0947713851928711,-0.3835020959377289,28.75,,,,,,,,,,,,,,,,,,,,,,,,,,,,,,,,,,,
0.0,-2.4504943743730687e-16,2.9219815731048584,-0.385270893573761,-1.8342630821689882e-16,-0.3072214424610138,-0.08076250553131104,2.604817424615698e-16,-0.19516173005104065,-0.07205495238304138,0.0,2.950429916381836,-1.272439956665039,-0.3835020959377289,19.5,0.0,3.1610727310180664,-1.2059211730957031,-0.5752531439065933,19.0,0.0,3.2422542572021484,-1.444101333618164,-0.3835020959377289,14.5,0.0,3.1081438064575195,-1.1522769927978516,-0.3835020959377289,22.0,0.0,2.7304887771606445,-0.1494884490966797,-0.7670041918754578,24.0,0.0,2.828836441040039,-0.07724761962890625,-0.3835020959377289,21.0,0.0,2.6242733001708984,0.1780986785888672,-0.7670041918754578,22.25,0.0,2.5266408920288086,0.3218650817871094,-0.5752531439065933,17.0,0.0,2.8095245361328125,-0.04649162292480469,0.0,26.25,,,,,,,,,,,,,,,,,,,,,,,,,,,,,,
0.0,-1.8770893326799617e-16,2.884451389312744,-0.43051719665527344,-5.748723277508781e-17,-0.3983042240142822,-0.14010417461395264,3.2720340121951787e-16,-0.33385932445526123,-0.1047808974981308,0.0,3.132462501525879,-1.2180805206298828,-0.3835020959377289,18.75,0.0,3.184676170349121,-1.3303756713867188,-0.3835020959377289,20.25,0.0,3.255486488342285,-1.4040470123291016,-0.3835020959377289,16.75,0.0,3.0323266983032227,-0.4960298538208008,-0.7670041918754578,17.0,0.0,2.872467041015625,-0.286102294921875,-0.7670041918754578,21.75,0.0,2.766251564025879,-0.17380714416503906,-0.7670041918754578,20.75,0.0,2.6317834854125977,0.03719329833984375,-0.7670041918754578,19.25,0.0,2.5180578231811523,0.2124309539794922,-0.7670041918754578,14.5,,,,,,,,,,,,,,,,,,,,,,,,,,,,,,,,,,,
0.0,-1.4627962537550228e-16,2.819140672683716,-0.48939424753189087,3.712162257755864e-17,-0.5537245869636536,-0.2103075534105301,3.6954837819777326e-16,-0.5505442023277283,-0.1371179223060608,0.0,2.9886960983276367,-1.3571977615356445,-0.9587552398443222,18.75,0.0,3.072381019592285,-1.587510108947754,-0.9587552398443222,18.0,0.0,3.1499862670898438,-1.6829967498779297,-0.9587552398443222,16.75,0.0,2.922534942626953,-1.0371208190917969,-0.9587552398443222,20.75,0.0,2.891063690185547,-0.561833381652832,-0.9587552398443222,20.75,0.0,2.628207206726074,-0.13303756713867188,-0.9587552398443222,15.75,0.0,2.7837753295898438,-0.2535581588745117,-0.7670041918754578,18.75,0.0,2.441525459289551,0.22208690643310547,-0.9587552398443222,14.0,0.0,2.8020143508911133,-0.03039836883544922,0.0,26.0,0.0,2.884984016418457,-0.06186962127685547,0.0,25.5,,,,,,,,,,,,,,,,,,,,,,,,,
0.0,-1.0194101077209608e-16,2.7213923931121826,-0.5676467418670654,1.2715211264906288e-16,-0.7876229286193848,-0.2932535707950592,4.06492090769184e-16,-0.8620211482048035,-0.16467739641666412,0.0,3.0727386474609375,-1.7641782760620117,-1.342257335782051,12.5,0.0,3.0069351196289062,-1.5703439712524414,-1.342257335782051,17.75,0.0,3.0115842819213867,-1.143336296081543,-1.1505062878131866,18.5,0.0,2.8374195098876953,-0.9334087371826172,-1.1505062878131866,24.75,0.0,2.914309501647949,-0.9706020355224609,-1.1505062878131866,21.25,0.0,2.7126073837280273,-0.7013082504272461,-1.1505062878131866,20.5,0.0,2.513408660888672,-0.2453327178955078,-1.1505062878131866,21.25,0.0,2.36356258392334,-0.1430511474609375,-0.9587552398443222,16.75,0.0,2.416849136352539,-0.19097328186035156,-1.1505062878131866,22.75,0.0,3.268718719482422,-1.797795295715332,0.0,14.75,0.0,2.7927160263061523,-0.18918514251708984,0.0,27.0,,,,,,,,,,,,,,,,,,,,
0.0,-6.711981718271682e-17,2.5955495834350586,-0.6876859664916992,1.9535588054135899e-16,-1.0241705179214478,-0.4432254433631897,4.258754603852534e-16,-1.1061078310012817,-0.25331729650497437,0.0,2.103567123413086,-0.8211135864257812,-1.72575943171978,27.5,0.0,2.741575241088867,-1.1551380157470703,-0.5752531439065933,18.5,0.0,2.8295516967773438,-1.2574195861816406,-1.9175104796886444,19.25,0.0,2.980470657348633,-1.2938976287841797,-0.9587552398443222,18.5,0.0,3.0881166458129883,-1.3636350631713867,-0.9587552398443222,16.5,0.0,2.597808837890625,-0.9588003158569336,-0.19175104796886444,16.75,0.0,2.2237300872802734,-0.6333589553833008,-1.72575943171978,26.75,0.0,2.3807287216186523,-0.5611181259155273,-1.72575943171978,20.25,0.0,1.738429069519043,-1.2935400009155273,0.0,21.25,0.0,3.24404239654541,-1.8725395202636719,0.0,13.75,0.0,2.7920007705688477,-0.21350383758544922,0.0,27.0,,,,,,,,,,,,,,,,,,,,
0.0,-3.4654271850488515e-17,2.462820529937744,-0.8519861698150635,2.5356796837850456e-16,-1.165738821029663,-0.6947940587997437,4.368132497727074e-16,-1.1180124282836914,-0.46313703060150146,0.0,2.6324987411499023,-1.4516115188598633,-0.9587552398443222,13.75,0.0,2.736210823059082,-1.5006065368652344,-0.9587552398443222,17.0,0.0,2.7801990509033203,-1.613616943359375,-0.9587552398443222,15.5,0.0,1.9680261611938477,-0.8769035339355469,-0.3835020959377289,14.25,0.0,2.002716064453125,-0.8965730667114258,-0.3835020959377289,30.25,0.0,2.1085739135742188,-0.8475780487060547,-0.3835020959377289,27.0,0.0,2.28273868560791,-0.7935762405395508,-1.72575943171978,20.25,0.0,2.788424491882324,-0.2124309539794922,0.0,25.5,,,,,,,,,,,,,,,,,,,,,,,,,,,,,,,,,,,
0.0,-4.555049127625865e-18,2.3250362873077393,-1.0274115800857544,3.014905779050907e-16,-1.2792314291000366,-0.9574081301689148,4.3992336946656796e-16,-1.0804029703140259,-0.6797119379043579,0.0,1.9844770431518555,-1.159071922302246,-0.19175104796886444,24.75,0.0,2.148270606994629,-1.2456178665161133,0.19175104796886444,22.0,0.0,2.8034448623657227,-1.5985965728759766,-0.5752531439065933,12.25,0.0,1.946568489074707,-0.9405612945556641,-0.9587552398443222,29.0,0.0,2.7490854263305664,-1.463770866394043,-0.7670041918754578,15.0,0.0,1.9447803497314453,-0.8447170257568359,-0.9587552398443222,15.25,,,,,,,,,,,,,,,,,,,,,,,,,,,,,,,,,,,,,,,,,,,,,
0.0,2.418172688984253e-17,2.1777024269104004,-1.1552748680114746,3.4080754444581e-16,-1.3690030574798584,-1.119931936264038,4.368325991815962e-16,-1.0121409893035889,-0.8007303476333618,0.0,2.041339874267578,-1.1179447174072266,-0.19175104796886444,21.25,0.0,2.111077308654785,-1.2792348861694336,-0.19175104796886444,14.75,0.0,1.7470121383666992,-0.8565187454223633,-0.3835020959377289,15.5,0.0,1.8124580383300781,-0.8586645126342773,-0.3835020959377289,19.0,0.0,1.912236213684082,-0.948786735534668,-0.3835020959377289,23.25,,,,,,,,,,,,,,,,,,,,,,,,,,,,,,,,,,,,,,,,,,,,,,,,,,
0.0,5.157105836309624e-17,2.0424931049346924,-1.2771447896957397,3.722291580664943e-16,-1.4354722499847412,-1.2380576133728027,4.2848916583246375e-16,-0.9480422139167786,-0.8603581786155701,0.0,1.8131732940673828,-1.085042953491211,-0.19175104796886444,12.5,0.0,1.953721046447754,-1.1175870895385742,-0.19175104796886444,19.75,0.0,2.127528190612793,-1.237034797668457,-0.5752531439065933,16.0,0.0,2.0728111267089844,-1.109004020690918,-0.19175104796886444,20.25,,,,,,,,,,,,,,,,,,,,,,,,,,,,,,,,,,,,,,,,,,,,,,,,,,,,,,,
0.0,7.637142205253861e-17,1.9078402519226074,-1.4173511266708374,3.9518523324474355e-16,-1.4775111675262451,-1.3874917030334473,4.1515472319053333e-16,-0.8570178151130676,-0.9568215608596802,0.0,1.7087459564208984,-1.1740922927856445,0.19175104796886444,15.25,0.0,1.8121004104614258,-1.222372055053711,-0.3835020959377289,21.25,0.0,2.087116241455078,-1.3546943664550781,0.19175104796886444,16.25,0.0,2.004861831665039,-1.2044906616210938,0.19175104796886444,20.0,,,,,,,,,,,,,,,,,,,,,,,,,,,,,,,,,,,,,,,,,,,,,,,,,,,,,,,
0.0,4.2335475981739605e-19,3.14381742477417,0.09134100377559662,1.5291223580527705e-18,-0.399090051651001,1.4408385753631592,4.3573749849095e-19,-0.40223750472068787,0.6128613352775574,0.0,3.188967704772949,-1.078963279724121,-0.3835020959377289,15.0,0.0,3.143906593322754,-0.756382942199707,-0.5752531439065933,20.0,0.0,3.014802932739258,-0.11730194091796875,-0.3835020959377289,23.0,0.0,2.7730464935302734,0.18596649169921875,-0.5752531439065933,14.5,0.0,2.86102294921875,0.13196468353271484,-0.3835020959377289,24.75,0.0,2.90071964263916,0.11229515075683594,-0.3835020959377289,27.0,0.0,3.3892393112182617,-1.1858940124511719,0.0,17.75,0.0,3.314852714538574,-0.9870529174804688,0.0,22.75,,,,,,,,,,,,,,,,,,,,,,,,,,,,,,,,,,,
0.0,4.547434206304278e-19,3.0798568725585938,0.1227932795882225,1.4149405176450585e-18,-0.46714046597480774,1.2935243844985962,3.388486701198775e-19,-0.4249284267425537,0.4340882897377014,0.0,3.138899803161621,-1.2842416763305664,-0.5752531439065933,21.75,0.0,3.192901611328125,-1.4297962188720703,-0.5752531439065933,15.25,0.0,3.120303153991699,-1.041412353515625,-0.5752531439065933,24.75,0.0,3.065943717956543,-0.7027387619018555,-0.3835020959377289,24.0,0.0,2.9354095458984375,-0.171661376953125,-0.5752531439065933,23.0,0.0,2.8238296508789062,0.020742416381835938,-0.5752531439065933,21.75,0.0,2.7219057083129883,0.13017654418945312,-0.5752531439065933,15.5,0.0,3.2873153686523438,-1.147627830505371,0.0,23.5,0.0,3.372788429260254,-1.2116432189941406,0.0,19.25,,,,,,,,,,,,,,,,,,,,,,,,,,,,,,
0.0,4.917849820508587e-19,3.0163333415985107,0.17842112481594086,1.3131855149773072e-18,-0.5218721032142639,1.2041014432907104,2.558984037569946e-19,-0.4293566644191742,0.322179913520813,0.0,3.0351877212524414,-1.8814802169799805,-0.7670041918754578,16.5,0.0,3.068089485168457,-1.4641284942626953,-0.7670041918754578,19.0,0.0,3.2923221588134766,-1.7505884170532227,-0.7670041918754578,12.0,0.0,3.065943717956543,-1.050710678100586,-0.5752531439065933,24.0,0.0,3.0126571655273438,-0.742793083190918,-0.3835020959377289,25.25,0.0,2.924680709838867,-0.3075599670410156,-0.3835020959377289,25.25,0.0,2.8259754180908203,-0.07295608520507812,-0.3835020959377289,23.5,0.0,2.717256546020508,0.10693073272705078,-0.7670041918754578,17.25,,,,,,,,,,,,,,,,,,,,,,,,,,,,,,,,,,,
0.0,5.082816518021568e-19,2.974724054336548,0.12856367230415344,1.1941129691978754e-18,-0.5083164572715759,0.95163494348526,1.6845003262062492e-19,-0.3454846441745758,0.08971942961215973,0.0,3.048419952392578,-1.5063285827636719,-0.7670041918754578,12.75,0.0,2.9976367950439453,-1.1508464813232422,-0.7670041918754578,18.0,0.0,2.8831958770751953,-0.880122184753418,-0.7670041918754578,21.75,0.0,2.8020143508911133,-0.46956539154052734,-0.3835020959377289,25.25,0.0,2.826690673828125,-0.5600452423095703,-0.3835020959377289,26.25,0.0,2.7369260787963867,-0.28252601623535156,-0.3835020959377289,16.75,,,,,,,,,,,,,,,,,,,,,,,,,,,,,,,,,,,,,,,,,,,,,
0.0,4.954250937339748e-19,2.8855884075164795,0.0957542210817337,1.0392858516335688e-18,-0.6221632957458496,0.7318916320800781,6.278952900244719e-20,-0.45258113741874695,-0.1070844978094101,0.0,2.7222633361816406,-1.0399818420410156,-0.9587552398443222,29.5,0.0,2.780914306640625,-1.1211633682250977,-0.9587552398443222,25.5,0.0,2.9053688049316406,-1.2288093566894531,-1.1505062878131866,15.75,0.0,2.7369260787963867,-0.5228519439697266,-0.9587552398443222,28.0,0.0,2.6661157608032227,-0.1494884490966797,-0.9587552398443222,24.75,0.0,2.5713443756103516,-0.006079673767089844,-0.9587552398443222,16.75,,,,,,,,,,,,,,,,,,,,,,,,,,,,,,,,,,,,,,,,,,,,,
0.0,4.684066348922139e-19,2.8093740940093994,0.030484721064567566,8.812002628412626e-19,-0.6663810610771179,0.4940817356109619,-3.6021789896820755e-20,-0.4397830665111542,-0.2923843562602997,0.0,1.8543004989624023,-1.3178586959838867,-0.19175104796886444,19.25,0.0,2.8477907180786133,-1.3943910598754883,-1.1505062878131866,14.5,0.0,2.697587013244629,-1.1440515518188477,-0.3835020959377289,21.75,0.0,2.7730464935302734,-1.2170076370239258,-0.3835020959377289,20.0,0.0,2.6428699493408203,-0.43022632598876953,-0.3835020959377289,24.25,0.0,2.4973154067993164,-0.3529787063598633,-0.7670041918754578,25.5,0.0,2.5388002395629883,-0.25856494903564453,-0.7670041918754578,28.75,0.0,1.7108917236328125,-1.4033317565917969,0.0,23.75,,,,,,,,,,,,,,,,,,,,,,,,,,,,,,,,,,,
0.0,4.617360436374331e-19,2.69498872756958,-0.0978127047419548,7.566242776513624e-19,-0.8158690929412842,0.16567707061767578,-1.1083417584522453e-19,-0.5870168209075928,-0.5437057018280029,0.0,2.7451515197753906,-1.6422271728515625,-0.19175104796886444,18.25,0.0,2.8814077377319336,-1.740574836730957,0.3835020959377289,14.5,0.0,2.7304887771606445,-1.3614892959594727,-0.19175104796886444,21.75,0.0,2.7086734771728516,-1.1504888534545898,-0.19175104796886444,22.25,0.0,2.197265625,-0.7849931716918945,-1.5340083837509155,28.25,0.0,2.2433996200561523,-0.7363557815551758,-1.342257335782051,31.25,0.0,2.3539066314697266,-0.7631778717041016,-1.72575943171978,26.5,0.0,2.578854560852051,-0.9459257125854492,-0.19175104796886444,23.75,,,,,,,,,,,,,,,,,,,,,,,,,,,,,,,,,,,
0.0,4.481815002286212e-19,2.6089751720428467,-0.28406962752342224,6.37988017946264e-19,-0.8423271775245667,-0.2101699262857437,-1.743501180595096e-19,-0.5296221375465393,-0.8040340542793274,0.0,2.965092658996582,-1.6758441925048828,-0.19175104796886444,13.0,0.0,2.536654472351074,-1.1830329895019531,0.19175104796886444,19.5,0.0,2.681136131286621,-1.2216567993164062,0.19175104796886444,21.25,0.0,2.75266170501709,-1.255631446838379,0.19175104796886444,20.0,0.0,2.8127431869506836,-1.5102624893188477,0.19175104796886444,15.0,0.0,2.103567123413086,-0.7957220077514648,-0.5752531439065933,28.75,0.0,2.129673957824707,-0.8683204650878906,-0.5752531439065933,27.75,0.0,2.268075942993164,-0.995635986328125,-0.3835020959377289,21.25,0.0,2.1103620529174805,-0.8318424224853516,0.0,28.75,0.0,2.7980804443359375,-0.8540153503417969,0.0,21.0,,,,,,,,,,,,,,,,,,,,,,,,,
0.0,3.274028944357988e-19,2.6093456745147705,-0.7916833758354187,4.015295993551844e-19,-0.7019315958023071,-1.048319935798645,-3.024573243597016e-19,-0.3046083152294159,-1.4128375053405762,0.0,2.109646797180176,-1.3343095779418945,0.7670041918754578,24.5,0.0,2.2755861282348633,-1.4437437057495117,-0.19175104796886444,16.5,0.0,2.0009279251098633,-0.9094476699829102,-0.3835020959377289,29.75,0.0,2.0520687103271484,-1.0668039321899414,-0.3835020959377289,27.25,0.0,2.6460886001586914,-1.3089179992675781,-0.19175104796886444,16.5,0.0,2.816319465637207,-1.3589859008789062,-0.19175104796886444,19.25,0.0,2.902507781982422,-1.4265775680541992,-0.19175104796886444,18.75,0.0,2.9844045639038086,-1.5546083450317383,-0.3835020959377289,14.75,0.0,2.7723312377929688,-0.962376594543457,0.0,20.75,,,,,,,,,,,,,,,,,,,,,,,,,,,,,,
0.0,2.679441697285098e-19,2.488861083984375,-1.0912774801254272,2.5240925253566936e-19,-0.752571165561676,-1.539727807044983,-3.723922139767923e-19,-0.26502901315689087,-1.7375620603561401,0.0,1.8439292907714844,-1.0471343994140625,0.19175104796886444,12.25,0.0,1.8743276596069336,-1.1032819747924805,0.19175104796886444,23.75,0.0,1.970529556274414,-1.2030601501464844,0.19175104796886444,20.5,0.0,2.150416374206543,-1.3124942779541016,0.19175104796886444,17.75,0.0,2.318143844604492,-1.399397850036621,0.19175104796886444,13.5,0.0,2.967238426208496,-1.2291669845581055,0.0,18.5,0.0,2.7816295623779297,-0.9101629257202148,0.0,21.0,,,,,,,,,,,,,,,,,,,,,,,,,,,,,,,,,,,,,,,,
0.0,2.133204966473522e-19,2.35247540473938,-1.2126981019973755,1.187638264651905e-19,-0.8597397208213806,-1.6533522605895996,-4.3016739349298865e-19,-0.3330927789211273,-1.6871850490570068,0.0,2.2541284561157227,-1.4562606811523438,-1.342257335782051,12.5,0.0,2.1550655364990234,-1.1841058731079102,-1.1505062878131866,18.0,0.0,1.8786191940307617,-0.973820686340332,0.3835020959377289,17.25,0.0,1.932978630065918,-1.0035037994384766,0.3835020959377289,27.0,0.0,2.012014389038086,-1.0728836059570312,0.3835020959377289,23.5,,,,,,,,,,,,,,,,,,,,,,,,,,,,,,,,,,,,,,,,,,,,,,,,,,
0.0,1.7396646135164985e-19,2.2036499977111816,-1.3613451719284058,1.4206109699910802e-20,-0.9964247941970825,-1.7678704261779785,-4.679408805085582e-19,-0.44629353284835815,-1.6237964630126953,0.0,1.7398595809936523,-1.164078712463379,0.3835020959377289,14.25,0.0,1.7913579940795898,-1.2903213500976562,-0.3835020959377289,22.75,0.0,1.8879175186157227,-1.3664960861206055,-0.3835020959377289,22.5,0.0,2.04312801361084,-1.3664960861206055,-0.3835020959377289,18.0,,,,,,,,,,,,,,,,,,,,,,,,,,,,,,,,,,,,,,,,,,,,,,,,,,,,,,,
0.0,1.5799093217322015e-23,3.125476837158203,-0.2658372223377228,-1.9691042307325004e-22,-0.17785724997520447,0.32959622144699097,-2.942195206887848e-22,-0.022288404405117035,0.25174543261528015,0.0,3.132462501525879,-1.5628337860107422,-0.19175104796886444,14.0,0.0,3.1442642211914062,-1.3257265090942383,-0.19175104796886444,22.25,0.0,3.156423568725586,-0.9301900863647461,-0.19175104796886444,22.0,0.0,2.9747486114501953,0.09226799011230469,-0.3835020959377289,24.25,0.0,3.045201301574707,-0.07939338684082031,-0.3835020959377289,23.0,0.0,2.9228925704956055,0.10120868682861328,-0.3835020959377289,18.25,0.0,3.2880306243896484,-1.0943412780761719,0.0,24.0,0.0,3.2068490982055664,-0.3898143768310547,0.0,24.5,0.0,3.022313117980957,-0.003933906555175781,0.0,26.75,0.0,2.9397010803222656,0.10228157043457031,0.0,19.25,,,,,,,,,,,,,,,,,,,,,,,,,
0.0,-3.618030077983838e-24,3.0962300300598145,-0.27271053194999695,-2.238697129547419e-22,-0.21713842451572418,0.2868264615535736,-2.926135765905976e-22,-0.07756206393241882,0.1970602571964264,0.0,3.3931732177734375,-1.5535354614257812,-0.3835020959377289,14.0,0.0,3.2973289489746094,-1.3804435729980469,-0.3835020959377289,16.25,0.0,3.256559371948242,-0.9748935699462891,-0.3835020959377289,21.75,0.0,3.1260251998901367,-0.5782842636108398,-0.3835020959377289,22.0,0.0,3.2182931900024414,-0.7206201553344727,-0.3835020959377289,25.0,0.0,2.8388500213623047,0.17130374908447266,-0.3835020959377289,21.5,0.0,2.894282341003418,0.19562244415283203,-0.3835020959377289,21.75,0.0,3.254413604736328,-1.1408329010009766,0.0,23.0,0.0,3.1957626342773438,-0.4849433898925781,0.0,23.25,0.0,2.990126609802246,0.03361701965332031,0.0,27.25,0.0,3.0580759048461914,0.0057220458984375,0.0,27.0,0.0,2.924680709838867,0.12087821960449219,0.0,21.25,,,,,,,,,,,,,,,
0.0,-1.8956682539868263e-23,3.050438642501831,-0.27320876717567444,-2.416790115074625e-22,-0.295461505651474,0.25729385018348694,-2.852387242469653e-22,-0.18095162510871887,0.15928125381469727,0.0,3.0012130737304688,-1.3843774795532227,-0.3835020959377289,16.25,0.0,3.2497644424438477,-1.303553581237793,-0.3835020959377289,17.25,0.0,3.4089088439941406,-1.141190528869629,-0.3835020959377289,15.0,0.0,2.950429916381836,-0.263214111328125,-0.5752531439065933,22.25,0.0,2.868533134460449,0.018596649169921875,-0.5752531439065933,24.25,0.0,2.900362014770508,-0.048995018005371094,-0.5752531439065933,26.75,0.0,2.771615982055664,0.16951560974121094,-0.5752531439065933,14.0,0.0,3.267645835876465,-1.1179447174072266,0.0,23.25,0.0,3.361344337463379,-1.2456178665161133,0.0,16.75,0.0,2.9228925704956055,0.03504753112792969,0.0,22.25,,,,,,,,,,,,,,,,,,,,,,,,,
0.0,-3.317203336031961e-23,2.9890880584716797,-0.2291390597820282,-2.550891167816914e-22,-0.38295379281044006,0.3021034598350525,-2.755314941965204e-22,-0.2712377905845642,0.1852511167526245,0.0,3.1642913818359375,-1.7691850662231445,-0.5752531439065933,13.5,0.0,3.104567527770996,-1.525282859802246,-0.5752531439065933,13.5,0.0,3.421783447265625,-1.5735626220703125,-0.5752531439065933,12.25,0.0,3.0519962310791016,-1.2323856353759766,-0.5752531439065933,16.5,0.0,2.961874008178711,-0.2689361572265625,-0.5752531439065933,18.25,0.0,2.8063058853149414,0.04184246063232422,-0.5752531439065933,26.75,0.0,2.837061882019043,0.006079673767089844,-0.5752531439065933,25.5,0.0,2.750515937805176,0.12195110321044922,-0.5752531439065933,19.75,0.0,3.3180713653564453,-1.3124942779541016,0.0,16.25,0.0,3.4950971603393555,-1.3554096221923828,0.0,12.75,0.0,3.235459327697754,-1.1701583862304688,0.0,18.5,0.0,3.168940544128418,-0.7188320159912109,0.0,23.0,0.0,3.0280351638793945,-0.11014938354492188,0.0,27.0,,,,,,,,,,
0.0,-4.6937842327599896e-23,2.928105354309082,-0.20017649233341217,-2.6518835390404597e-22,-0.46721675992012024,0.31647011637687683,-2.642394488983737e-22,-0.3522649109363556,0.18314006924629211,0.0,3.0663013458251953,-1.5217065811157227,-0.7670041918754578,18.25,0.0,3.2172203063964844,-1.5292167663574219,-0.7670041918754578,14.5,0.0,2.994060516357422,-1.3439655303955078,-0.5752531439065933,20.75,0.0,3.0469894409179688,-0.7063150405883789,-0.5752531439065933,20.75,0.0,2.9325485229492188,-0.4152059555053711,-0.7670041918754578,18.25,0.0,2.672910690307617,0.22029876708984375,-0.7670041918754578,16.0,0.0,2.7565956115722656,0.1462697982788086,-0.7670041918754578,18.25,0.0,3.1692981719970703,-1.360774040222168,0.0,20.75,0.0,3.2590627670288086,-1.4297962188720703,0.0,17.75,0.0,3.108859062194824,-1.1036396026611328,0.0,23.5,0.0,3.026247024536133,-0.11658668518066406,0.0,26.25,,,,,,,,,,,,,,,,,,,,
0.0,-5.222262348006719e-23,2.853287935256958,-0.2667462229728699,-2.619185317627921e-22,-0.5656204223632812,0.17024341225624084,-2.4507035609344384e-22,-0.43535786867141724,0.047415122389793396,0.0,3.059506416320801,-1.4941692352294922,-0.9587552398443222,14.0,0.0,2.8002262115478516,-0.8350610733032227,-0.3835020959377289,21.5,0.0,2.91287899017334,-0.9974241256713867,-0.7670041918754578,22.25,0.0,3.0112266540527344,-1.1107921600341797,-0.9587552398443222,15.75,0.0,2.6929378509521484,-0.10693073272705078,-0.7670041918754578,25.25,0.0,2.6564598083496094,0.013589859008789062,-0.7670041918754578,24.5,0.0,2.570986747741699,0.11587142944335938,-0.7670041918754578,16.0,,,,,,,,,,,,,,,,,,,,,,,,,,,,,,,,,,,,,,,,
0.0,-5.724130607198533e-23,2.7785465717315674,-0.35271039605140686,-2.5684664839142587e-22,-0.6536545753479004,0.004747018218040466,-2.258711729781452e-22,-0.497993141412735,-0.09269493818283081,0.0,3.1424760818481445,-1.7151832580566406,-2.109261527657509,12.75,0.0,2.916097640991211,-1.3217926025390625,-0.9587552398443222,17.75,0.0,3.0913352966308594,-1.4265775680541992,-0.9587552398443222,15.75,0.0,2.8302669525146484,-1.1154413223266602,-0.9587552398443222,23.25,0.0,2.764463424682617,-0.9630918502807617,-0.9587552398443222,25.75,0.0,2.6875734329223633,-0.2592802047729492,-0.19175104796886444,25.5,0.0,2.553105354309082,-0.05078315734863281,-0.9587552398443222,23.5,0.0,2.5817155838012695,-0.058650970458984375,-0.7670041918754578,28.25,0.0,3.230452537536621,-1.462697982788086,0.0,16.75,0.0,3.092050552368164,-1.1394023895263672,0.0,20.25,,,,,,,,,,,,,,,,,,,,,,,,,
0.0,-5.71585324749223e-23,2.711437225341797,-0.5128515362739563,-2.4399813635106744e-22,-0.7036001682281494,-0.27306705713272095,-2.028428464071293e-22,-0.49676090478897095,-0.3192422688007355,0.0,2.9897689819335938,-1.4816522598266602,-0.19175104796886444,14.5,0.0,2.7265548706054688,-1.1354684829711914,-0.3835020959377289,27.0,0.0,2.789139747619629,-1.200556755065918,-0.3835020959377289,24.0,0.0,2.8960704803466797,-1.2717247009277344,-0.19175104796886444,19.25,0.0,2.646803855895996,-0.8196830749511719,-0.9587552398443222,26.0,0.0,2.37429141998291,-0.29718875885009766,-0.9587552398443222,19.0,0.0,2.5173425674438477,-0.25713443756103516,-0.9587552398443222,28.75,0.0,2.4640560150146484,-0.2224445343017578,-0.9587552398443222,27.5,,,,,,,,,,,,,,,,,,,,,,,,,,,,,,,,,,,
0.0,-5.980110922232958e-23,2.6037440299987793,-0.6897886991500854,-2.3335177054840053e-22,-0.8376749753952026,-0.5524038076400757,-1.822351616118894e-22,-0.6085956692695618,-0.5239008665084839,0.0,2.6679039001464844,-1.5621185302734375,-0.19175104796886444,20.25,0.0,2.7244091033935547,-1.713395118713379,0.3835020959377289,19.75,0.0,2.8696060180664062,-1.6887187957763672,0.3835020959377289,14.75,0.0,2.553105354309082,-1.0210275650024414,-0.19175104796886444,24.0,0.0,2.6775598526000977,-1.1794567108154297,-0.19175104796886444,20.5,0.0,2.1990537643432617,-0.7578134536743164,-1.72575943171978,27.75,0.0,2.25985050201416,-0.6823539733886719,-1.72575943171978,30.25,0.0,2.373218536376953,-0.7688999176025391,-1.72575943171978,26.0,0.0,3.1936168670654297,-1.5556812286376953,0.0,16.0,0.0,2.15756893157959,-0.8561611175537109,0.0,25.5,,,,,,,,,,,,,,,,,,,,,,,,,
0.0,-6.230522510365247e-23,2.4823853969573975,-0.9261507987976074,-2.2194956240256155e-22,-0.9554593563079834,-0.9248526096343994,-1.6245261270173622e-22,-0.6597644090652466,-0.8071349859237671,0.0,2.158641815185547,-1.2420415878295898,-1.72575943171978,22.75,0.0,2.308487892150879,-1.3403892517089844,-1.72575943171978,16.0,0.0,2.518773078918457,-1.4437437057495117,-0.3835020959377289,12.5,0.0,2.662539482116699,-1.5968084335327148,-0.5752531439065933,14.5,0.0,2.7780532836914062,-1.674056053161621,-0.5752531439065933,13.25,0.0,2.088189125061035,-1.0524988174438477,0.3835020959377289,26.25,0.0,2.03704833984375,-0.9194612503051758,0.19175104796886444,26.5,0.0,2.1944046020507812,-0.7596015930175781,0.0,25.75,,,,,,,,,,,,,,,,,,,,,,,,,,,,,,,,,,,
0.0,-6.568198522921808e-23,2.352062940597534,-1.0709033012390137,-2.1103709172845824e-22,-1.0705573558807373,-1.0988551378250122,-1.4413829170838037e-22,-0.7041258215904236,-0.8934133052825928,0.0,2.0023584365844727,-1.1372566223144531,-0.19175104796886444,19.0,0.0,2.507328987121582,-1.4984607696533203,-1.1505062878131866,12.5,0.0,2.6761293411254883,-1.5435218811035156,-1.1505062878131866,12.75,0.0,1.8314123153686523,-0.8919239044189453,-0.19175104796886444,13.25,0.0,1.8993616104125977,-0.9673833847045898,-0.19175104796886444,22.75,0.0,2.310633659362793,-1.0421276092529297,-0.3835020959377289,14.25,0.0,2.8949975967407227,-1.445174217224121,0.0,20.25,0.0,3.177523612976074,-1.5492439270019531,0.0,14.25,0.0,2.20334529876709,-0.7070302963256836,0.0,25.25,,,,,,,,,,,,,,,,,,,,,,,,,,,,,,
0.0,-6.910083897268629e-23,2.2283451557159424,-1.1554924249649048,-1.9937231280803825e-22,-1.1858932971954346,-1.1103932857513428,-1.2621999151121996e-22,-0.7778606414794922,-0.8027312755584717,0.0,2.2673606872558594,-1.4587640762329102,-1.1505062878131866,14.75,0.0,2.1969079971313477,-1.317143440246582,-1.1505062878131866,17.25,0.0,2.4129152297973633,-1.5360116958618164,-1.1505062878131866,12.25,0.0,2.1321773529052734,-1.0281801223754883,-0.5752531439065933,19.0,0.0,2.0481348037719727,-0.8171796798706055,-0.5752531439065933,20.5,0.0,2.2079944610595703,-0.7163286209106445,0.0,25.75,,,,,,,,,,,,,,,,,,,,,,,,,,,,,,,,,,,,,,,,,,,,,
0.0,1.3474141724967155e-28,3.081571578979492,-0.6093803644180298,1.752388730440877e-28,-0.43190744519233704,-0.31752821803092957,-2.1661239825901913e-28,-0.45160263776779175,-0.004938904196023941,0.0,3.0165910720825195,-1.4530420303344727,-0.5752531439065933,16.75,0.0,3.3441781997680664,-1.2896060943603516,-0.5752531439065933,14.0,0.0,2.9654502868652344,-0.9645223617553711,-0.5752531439065933,14.0,0.0,3.315567970275879,-1.0564327239990234,-0.5752531439065933,17.25,0.0,3.9031505584716797,-0.996708869934082,-0.5752531439065933,13.25,0.0,2.8291940689086914,0.04291534423828125,-0.5752531439065933,16.25,0.0,2.891063690185547,-0.04756450653076172,-0.5752531439065933,17.25,,,,,,,,,,,,,,,,,,,,,,,,,,,,,,,,,,,,,,,,
0.0,1.1102712888081555e-28,3.018951416015625,-0.5952717661857605,9.954066000684025e-29,-0.5379829406738281,-0.22465409338474274,-2.5210372416367877e-28,-0.5552816390991211,0.08905452489852905,0.0,2.9386281967163086,-0.9226799011230469,-0.7670041918754578,22.5,0.0,3.136754035949707,-0.9566545486450195,-0.7670041918754578,21.5,0.0,3.242969512939453,-1.026749610900879,-0.5752531439065933,18.5,0.0,3.323078155517578,-1.1998414993286133,-0.5752531439065933,13.75,0.0,2.8467178344726562,-0.29397010803222656,-0.5752531439065933,26.25,0.0,2.7812719345092773,-0.044345855712890625,-0.5752531439065933,27.0,0.0,2.718329429626465,0.09870529174804688,-0.9587552398443222,22.25,,,,,,,,,,,,,,,,,,,,,,,,,,,,,,,,,,,,,,,,
0.0,8.774540437746892e-29,2.938357353210449,-0.5566256642341614,3.082268213573608e-29,-0.6600286960601807,-0.09741384536027908,-2.809324639446009e-28,-0.6636785864830017,0.20424389839172363,0.0,2.8978586196899414,-1.0367631912231445,-0.9587552398443222,24.75,0.0,3.053426742553711,-0.9201765060424805,-0.9587552398443222,18.5,0.0,2.819538116455078,-0.6923675537109375,-0.7670041918754578,24.75,0.0,3.277301788330078,-0.7127523422241211,-0.9587552398443222,12.25,0.0,2.6750564575195312,0.0064373016357421875,-0.7670041918754578,25.25,0.0,2.7179718017578125,-0.08511543273925781,-0.7670041918754578,27.5,0.0,2.579212188720703,0.0890493392944336,-0.7670041918754578,16.5,,,,,,,,,,,,,,,,,,,,,,,,,,,,,,,,,,,,,,,,
0.0,6.273406237637888e-29,2.843806266784668,-0.5856766700744629,-3.404378492139604e-29,-0.7709047198295593,-0.1114095002412796,-3.0538151866136494e-28,-0.7151533961296082,0.17770591378211975,0.0,3.02731990814209,-1.4891624450683594,-0.19175104796886444,14.0,0.0,2.7480125427246094,-1.0764598846435547,-0.7670041918754578,23.75,0.0,2.8241872787475586,-1.1415481567382812,-0.7670041918754578,21.25,0.0,2.9293298721313477,-1.234889030456543,-0.19175104796886444,18.0,0.0,2.705812454223633,-0.354766845703125,-0.9587552398443222,25.25,0.0,2.373933792114258,-0.1666545867919922,-1.1505062878131866,14.5,0.0,2.5870800018310547,-0.10764598846435547,-0.9587552398443222,26.25,0.0,2.4973154067993164,-0.009655952453613281,-0.9587552398443222,23.0,,,,,,,,,,,,,,,,,,,,,,,,,,,,,,,,,,,
0.0,3.939823127865713e-29,2.736903429031372,-0.6875215768814087,-9.081094919966762e-29,-0.9438977241516113,-0.24460645020008087,-3.233139968183003e-28,-0.8716726303100586,0.06222705543041229,0.0,2.997279167175293,-1.623988151550293,-0.19175104796886444,13.5,0.0,2.8259754180908203,-1.4079809188842773,-0.9587552398443222,17.0,0.0,2.712249755859375,-1.1440515518188477,-0.9587552398443222,27.5,0.0,2.750515937805176,-1.2230873107910156,-0.9587552398443222,22.75,0.0,3.3420324325561523,-1.4487504959106445,-0.3835020959377289,12.75,0.0,3.4857988357543945,-1.4365911483764648,-0.3835020959377289,12.0,0.0,2.680063247680664,-0.8940696716308594,-1.342257335782051,25.75,0.0,2.5702714920043945,-0.4048347473144531,-1.342257335782051,23.5,0.0,2.434372901916504,-0.19669532775878906,-1.342257335782051,21.25,0.0,2.3113489151000977,0.05257129669189453,-1.72575943171978,17.5,0.0,1.7899274826049805,-1.360774040222168,0.0,20.75,,,,,,,,,,,,,,,,,,,,
0.0,2.1183589338541327e-29,2.6249051094055176,-0.7872481346130371,-1.3402387593770362e-28,-1.0548062324523926,-0.37942051887512207,-3.308025420728126e-28,-0.8892547488212585,-0.06453493237495422,0.0,2.7837753295898438,-1.329660415649414,0.19175104796886444,20.5,0.0,2.8449296951293945,-1.4977455139160156,-0.3835020959377289,19.25,0.0,2.948284149169922,-1.5828609466552734,0.19175104796886444,14.75,0.0,2.5860071182250977,-0.9984970092773438,-0.3835020959377289,23.5,0.0,2.718329429626465,-1.1011362075805664,0.19175104796886444,20.25,0.0,2.235531806945801,-0.5457401275634766,-1.9175104796886444,25.0,0.0,2.2977590560913086,-0.527501106262207,-1.9175104796886444,26.75,0.0,2.4329423904418945,-0.6730556488037109,-1.9175104796886444,23.25,0.0,2.0946264266967773,-0.9062290191650391,0.0,24.0,,,,,,,,,,,,,,,,,,,,,,,,,,,,,,
0.0,3.852116428661595e-30,2.501657724380493,-0.9601619243621826,-1.7074404144337954e-28,-1.1454482078552246,-0.6544983386993408,-3.3350093844376925e-28,-0.8499276638031006,-0.3226887583732605,0.0,2.2509098052978516,-1.2177228927612305,-1.72575943171978,19.75,0.0,2.2476911544799805,-1.2159347534179688,-1.72575943171978,19.25,0.0,2.4558305740356445,-1.2903213500976562,-1.72575943171978,17.75,0.0,2.610325813293457,-1.3107061386108398,0.7670041918754578,17.25,0.0,2.697587013244629,-1.4237165451049805,0.7670041918754578,17.0,0.0,2.098202705383301,-0.9180307388305664,-0.19175104796886444,23.25,0.0,2.9675960540771484,-1.3207197189331055,-0.3835020959377289,13.25,0.0,3.153562545776367,-1.363992691040039,-0.19175104796886444,14.5,0.0,2.049565315246582,-0.7442235946655273,-0.19175104796886444,27.5,0.0,2.07674503326416,-0.8869171142578125,0.0,26.25,,,,,,,,,,,,,,,,,,,,,,,,,
0.0,-1.2473125793750413e-29,2.348755359649658,-1.140641450881958,-2.0073576605828206e-28,-1.2804855108261108,-0.9129899740219116,-3.313954636803165e-28,-0.8820608854293823,-0.5370495319366455,0.0,1.9748210906982422,-1.3818740844726562,0.19175104796886444,24.25,0.0,2.058863639831543,-1.398324966430664,-0.9587552398443222,20.5,0.0,2.180814743041992,-1.490950584411621,-0.9587552398443222,12.25,0.0,1.9136667251586914,-1.2180805206298828,0.19175104796886444,21.0,0.0,2.628207206726074,-1.6461610794067383,-1.5340083837509155,13.0,0.0,2.010941505432129,-0.9709596633911133,0.0,27.25,,,,,,,,,,,,,,,,,,,,,,,,,,,,,,,,,,,,,,,,,,,,,
0.0,-3.026004878587319e-29,2.200876235961914,-1.275788426399231,-2.2820081503089435e-28,-1.383844017982483,-1.0566105842590332,-3.275957001965377e-28,-0.8821529150009155,-0.6291022896766663,0.0,1.8310546875,-1.3407468795776367,-0.19175104796886444,19.5,0.0,1.979827880859375,-1.305699348449707,-0.19175104796886444,19.75,0.0,2.169370651245117,-1.2563467025756836,-0.3835020959377289,14.75,,,,,,,,,,,,,,,,,,,,,,,,,,,,,,,,,,,,,,,,,,,,,,,,,,,,,,,,,,,,
0.0,-4.4038217811861316e-29,2.0561697483062744,-1.3976826667785645,-2.4583198144803035e-28,-1.4337702989578247,-1.184120774269104,-3.174968457919002e-28,-0.7995994091033936,-0.7253259420394897,0.0,1.567840576171875,-1.0378360748291016,0.3835020959377289,13.5,0.0,1.8371343612670898,-1.1969804763793945,0.3835020959377289,22.0,0.0,1.9623041152954102,-1.284956932067871,-0.3835020959377289,20.5,0.0,1.7341375350952148,-1.0521411895751953,0.3835020959377289,15.75,0.0,2.136111259460449,-1.2581348419189453,-0.19175104796886444,15.5,0.0,3.107786178588867,-1.4297962188720703,0.0,13.75,,,,,,,,,,,,,,,,,,,,,,,,,,,,,,,,,,,,,,,,,,,,,
