tid,posx,posy,posz,velx,vely,velz,accx,accy,accz,pointx1,pointy1,pointz1,doppler1,snr1,pointx2,pointy2,pointz2,doppler2,snr2,pointx3,pointy3,pointz3,doppler3,snr3,pointx4,pointy4,pointz4,doppler4,snr4,pointx5,pointy5,pointz5,doppler5,snr5,pointx6,pointy6,pointz6,doppler6,snr6,pointx7,pointy7,pointz7,doppler7,snr7,pointx8,pointy8,pointz8,doppler8,snr8,pointx9,pointy9,pointz9,doppler9,snr9,pointx10,pointy10,pointz10,doppler10,snr10,pointx11,pointy11,pointz11,doppler11,snr11,pointx12,pointy12,pointz12,doppler12,snr12,pointx13,pointy13,pointz13,doppler13,snr13,pointx14,pointy14,pointz14,doppler14,snr14,pointx15,pointy15,pointz15,doppler15,snr15,pointx16,pointy16,pointz16,doppler16,snr16
0.0,-0.14817312359809875,3.028984308242798,0.05293562635779381,0.016392774879932404,-0.3351043462753296,-0.005856405012309551,0.0,0.0,0.0,0.0,3.0641555786132812,-1.188039779663086,-0.5752531439065933,25.0,0.0,3.130674362182617,-1.2856721878051758,-0.5752531439065933,20.0,0.0,3.2715797424316406,-1.2888908386230469,-0.5752531439065933,14.25,0.0,3.022313117980957,-0.7799863815307617,-0.5752531439065933,23.5,0.0,2.842426300048828,-0.11944770812988281,-0.7670041918754578,23.0,0.0,2.9085874557495117,-0.23639202117919922,-0.5752531439065933,24.25,0.0,2.761960029602051,-0.05435943603515625,-0.5752531439065933,14.5,,,,,,,,,,,,,,,,,,,,,,,,,,,,,,,,,,,,,,,,,,,,,
0.0,-0.15548504889011383,2.9824087619781494,0.05069956183433533,-0.07342606782913208,-0.46962523460388184,-0.022496771067380905,-0.006136038340628147,-0.07740038633346558,-0.0027226838283240795,0.0,3.1725168228149414,-1.237034797668457,-0.19175104796886444,17.75,0.0,3.3234357833862305,-1.2763738632202148,-0.19175104796886444,12.25,0.0,3.117084503173828,-0.973820686340332,-0.19175104796886444,20.75,0.0,3.0051469802856445,-0.7749795913696289,-0.7670041918754578,22.75,0.0,2.8928518295288086,-0.5121231079101562,-0.5752531439065933,21.75,0.0,2.780914306640625,-0.3286600112915039,-0.5752531439065933,21.25,0.0,2.7104616165161133,-0.21708011627197266,-0.5752531439065933,16.25,,,,,,,,,,,,,,,,,,,,,,,,,,,,,,,,,,,,,,,,,,,,,
0.0,-0.2350703626871109,2.9344499111175537,0.04168856143951416,-0.44260963797569275,-0.48044949769973755,-0.0571792796254158,-0.08141602575778961,-0.07778012752532959,-0.009440513327717781,0.0,3.0634403228759766,-1.4394521713256836,-0.9587552398443222,16.5,0.0,3.028750419616699,-1.2313127517700195,-0.9587552398443222,19.75,0.0,2.9937028884887695,-1.007080078125,-0.9587552398443222,21.0,0.0,2.830982208251953,-0.7256269454956055,-1.1505062878131866,18.0,0.0,2.6650428771972656,-0.4781484603881836,-0.7670041918754578,21.0,0.0,2.5534629821777344,-0.34117698669433594,-0.7670041918754578,12.25,0.0,2.6181936264038086,-0.38444995880126953,-0.7670041918754578,20.75,,,,,,,,,,,,,,,,,,,,,,,,,,,,,,,,,,,,,,,,,,,,,
0.0,-0.3525683879852295,2.8475465774536133,0.029214531183242798,-0.7010330557823181,-0.6687706708908081,-0.08206716179847717,-0.13143637776374817,-0.43105632066726685,-0.019984789192676544,0.0,2.8166770935058594,-1.3239383697509766,-1.5340083837509155,18.25,0.0,2.95257568359375,-1.4094114303588867,-1.5340083837509155,16.75,0.0,3.0666589736938477,-1.4712810516357422,0.19175104796886444,15.5,0.0,2.428293228149414,-0.7760524749755859,-0.9587552398443222,14.5,0.0,2.7430057525634766,-0.8965730667114258,-1.5340083837509155,19.5,0.0,2.55739688873291,-0.6644725799560547,-0.9587552398443222,21.0,0.0,2.636075019836426,-0.6805658340454102,-0.7670041918754578,22.0,0.0,3.239750862121582,-1.443028450012207,0.0,14.75,,,,,,,,,,,,,,,,,,,,,,,,,,,,,,,,,,,,,,,,
0.0,-0.5750944018363953,2.734036922454834,0.01631946489214897,-1.117860198020935,-0.9047515392303467,-0.09701062738895416,-0.2527084946632385,-0.8474259376525879,-0.0273602157831192,0.0,1.999497413635254,-1.2731552124023438,-0.19175104796886444,21.25,0.0,2.1657943725585938,-1.1140108108520508,-0.19175104796886444,27.0,0.0,2.7054548263549805,-1.3375282287597656,-1.9175104796886444,12.75,0.0,2.3299455642700195,-0.9480714797973633,-1.342257335782051,26.25,0.0,2.5005340576171875,-0.9434223175048828,-0.9587552398443222,22.5,0.0,2.6085376739501953,-1.1597871780395508,0.9587552398443222,19.25,0.0,2.012014389038086,-1.1851787567138672,0.0,15.0,0.0,3.213644027709961,-1.502394676208496,0.0,14.75,,,,,,,,,,,,,,,,,,,,,,,,,,,,,,,,,,,,,,,,
0.0,-0.8506007790565491,2.6084094047546387,0.004895205143839121,-1.5207399129867554,-1.0763745307922363,-0.10362780094146729,-0.46528053283691406,-0.9487752318382263,-0.03019564412534237,0.0,2.3206472396850586,-1.3418197631835938,-1.1505062878131866,17.0,0.0,2.4955272674560547,-1.4269351959228516,-0.7670041918754578,13.25,0.0,2.2383928298950195,-1.053929328918457,-1.1505062878131866,21.25,0.0,2.115011215209961,-0.948786735534668,-1.5340083837509155,21.25,0.0,2.16829776763916,-0.9645223617553711,-1.5340083837509155,24.25,0.0,2.0341873168945312,-1.1519193649291992,0.0,15.75,,,,,,,,,,,,,,,,,,,,,,,,,,,,,,,,,,,,,,,,,,,,,,,,,,
0.0,-1.0118540525436401,2.4582343101501465,-0.0019085861276835203,-1.556904911994934,-1.305221438407898,-0.09858900308609009,-0.38995587825775146,-1.1936070919036865,-0.023940470069646835,0.0,2.056717872619629,-0.9981393814086914,-0.19175104796886444,18.5,0.0,2.1189451217651367,-1.0131597518920898,-0.5752531439065933,20.0,0.0,2.247333526611328,-1.111149787902832,-0.5752531439065933,15.75,0.0,2.476930618286133,-1.1730194091796875,-0.5752531439065933,15.75,0.0,2.651810646057129,-1.1394023895263672,-0.5752531439065933,12.75,0.0,2.062082290649414,-1.0524988174438477,0.0,16.25,0.0,3.1986236572265625,-1.5510320663452148,0.0,14.25,,,,,,,,,,,,,,,,,,,,,,,,,,,,,,,,,,,,,,,,,,,,,
0.0,-1.1509318351745605,2.3247551918029785,-0.008015202358365059,-1.563233494758606,-1.410824179649353,-0.09339741617441177,-0.37245672941207886,-1.1654977798461914,-0.018065311014652252,0.0,3.2150745391845703,-2.19118595123291,-0.19175104796886444,17.0,0.0,3.46219539642334,-2.0592212677001953,-0.19175104796886444,18.0,0.0,3.3402442932128906,-0.8869171142578125,-0.19175104796886444,17.75,0.0,3.5387277603149414,-0.6161928176879883,-0.19175104796886444,13.0,0.0,3.037691116333008,-0.02682209014892578,-0.5752531439065933,19.5,0.0,3.0988454818725586,-0.08046627044677734,-0.19175104796886444,22.75,0.0,3.2072067260742188,-0.07581710815429688,-0.19175104796886444,19.0,0.0,2.9071569442749023,0.21135807037353516,-0.5752531439065933,12.25,0.0,3.5344362258911133,-1.9326210021972656,0.0,14.25,0.0,3.395676612854004,-1.6293525695800781,0.0,17.75,0.0,3.409266471862793,-1.2023448944091797,0.0,20.5,,,,,,,,,,,,,,,,,,,,,,,,,
0.0,-0.12038346379995346,3.1372854709625244,-0.0006191832944750786,-0.21643808484077454,-0.2302504926919937,-0.0012932117097079754,-0.46076610684394836,-0.0446186438202858,-0.0005431712488643825,0.0,3.4303665161132812,-1.1168718338012695,-0.5752531439065933,19.75,0.0,3.50797176361084,-1.2845993041992188,-0.7670041918754578,16.75,0.0,3.36456298828125,-0.9140968322753906,-0.5752531439065933,21.5,0.0,3.2193660736083984,-0.6333589553833008,-0.3835020959377289,20.5,0.0,2.982616424560547,0.032901763916015625,-0.3835020959377289,24.0,0.0,3.048062324523926,-0.04971027374267578,-0.3835020959377289,23.5,0.0,2.9096603393554688,0.1291036605834961,-0.5752531439065933,17.75,0.0,3.467559814453125,-2.0502805709838867,0.0,14.25,0.0,3.39353084564209,-1.2688636779785156,0.0,20.25,0.0,2.926468849182129,0.1920461654663086,0.0,17.75,,,,,,,,,,,,,,,,,,,,,,,,,,,,,,
0.0,-0.25680670142173767,3.1268296241760254,-0.0005400332156568766,-0.45327305793762207,-0.26447179913520813,-0.0011152902152389288,-0.6217940449714661,-0.1164659634232521,-0.00041559914825484157,0.0,3.3838748931884766,-1.1347532272338867,-0.5752531439065933,13.25,0.0,3.257632255554199,-0.8869171142578125,-0.5752531439065933,17.75,0.0,3.1299591064453125,-0.653386116027832,-0.3835020959377289,23.75,0.0,3.0562877655029297,-0.2682209014892578,-0.3835020959377289,27.0,0.0,2.93576717376709,0.01895427703857422,-0.5752531439065933,19.25,0.0,3.000497817993164,-0.0858306884765625,-0.5752531439065933,26.5,0.0,3.46219539642334,-2.0595788955688477,0.0,14.25,0.0,3.3878087997436523,-1.273512840270996,0.0,20.25,0.0,3.448963165283203,-1.4920234680175781,0.0,18.0,,,,,,,,,,,,,,,,,,,,,,,,,,,,,,,,,,,
0.0,-0.33168312907218933,3.0896806716918945,-0.0005005137645639479,-0.5579239130020142,-0.32350245118141174,-0.0009847065666690469,-0.6555114984512329,-0.1886809766292572,-0.00031970624695532024,0.0,3.188610076904297,-1.2602806091308594,-0.7670041918754578,19.0,0.0,3.2486915588378906,-1.4591217041015625,-0.7670041918754578,14.25,0.0,3.0394792556762695,-0.7503032684326172,-0.5752531439065933,21.0,0.0,3.166794776916504,-0.8096694946289062,-0.5752531439065933,21.0,0.0,2.9507875442504883,-0.3801584243774414,-0.5752531439065933,19.5,0.0,2.8592348098754883,-0.1251697540283203,-0.3835020959377289,16.25,0.0,3.4911632537841797,-2.009868621826172,0.0,14.0,0.0,3.39353084564209,-1.2184381484985352,0.0,19.75,,,,,,,,,,,,,,,,,,,,,,,,,,,,,,,,,,,,,,,,
0.0,-0.48961812257766724,3.0466113090515137,-0.0004618570674210787,-0.7953725457191467,-0.40570858120918274,-0.0008572096703574061,-0.8011800646781921,-0.28998714685440063,-0.00022917124442756176,0.0,3.0183792114257812,-0.9226799011230469,-0.5752531439065933,25.5,0.0,3.0684471130371094,-1.0167360305786133,-0.9587552398443222,25.75,0.0,3.130316734313965,-1.1254549026489258,-0.9587552398443222,18.0,0.0,2.8721094131469727,-0.2346038818359375,-0.3835020959377289,19.75,0.0,2.9622316360473633,-0.2671480178833008,-0.3835020959377289,23.25,0.0,3.4886598587036133,-2.01416015625,0.0,14.0,0.0,3.3763647079467773,-1.3346672058105469,0.0,18.25,,,,,,,,,,,,,,,,,,,,,,,,,,,,,,,,,,,,,,,,,,,,,
0.0,-0.594611406326294,2.9907233715057373,-0.0004390177200548351,-0.9051424860954285,-0.4943958520889282,-0.0007515266188420355,-0.8197711110115051,-0.3798728585243225,-0.00015539515879936516,0.0,2.865314483642578,-1.2073516845703125,-0.9587552398443222,23.25,0.0,2.941131591796875,-1.3114213943481445,-1.1505062878131866,19.0,0.0,3.096342086791992,-1.3818740844726562,-0.9587552398443222,15.0,0.0,2.882838249206543,-0.5174875259399414,-0.9587552398443222,21.75,0.0,2.7086734771728516,-0.2771615982055664,-0.3835020959377289,16.5,0.0,2.785205841064453,-0.25534629821777344,-0.3835020959377289,22.0,0.0,1.925826072692871,-1.4194250106811523,0.0,14.75,0.0,3.483295440673828,-2.023458480834961,0.0,13.25,0.0,3.397822380065918,-1.2373924255371094,0.0,17.25,0.0,3.3080577850341797,-0.9351968765258789,0.0,17.75,,,,,,,,,,,,,,,,,,,,,,,,,,,,,,
0.0,-0.7004192471504211,2.9071452617645264,-0.00039089005440473557,-0.9913209676742554,-0.6357478499412537,-0.0006190873100422323,-0.8098671436309814,-0.5248358845710754,-6.951471732463688e-05,0.0,1.8439292907714844,-1.4355182647705078,-0.19175104796886444,15.25,0.0,1.9801855087280273,-1.381516456604004,-0.19175104796886444,19.0,0.0,2.877473831176758,-1.3375282287597656,-0.3835020959377289,15.75,0.0,2.7637481689453125,-1.0875463485717773,-0.7670041918754578,24.75,0.0,2.8231143951416016,-1.165151596069336,-0.7670041918754578,21.75,0.0,2.5162696838378906,-0.75531005859375,-1.1505062878131866,19.25,0.0,2.6875734329223633,-0.8279085159301758,-1.1505062878131866,21.25,0.0,3.372788429260254,-1.3110637664794922,0.0,16.75,0.0,3.290534019470215,-1.050710678100586,0.0,17.25,,,,,,,,,,,,,,,,,,,,,,,,,,,,,,,,,,,
0.0,-0.8485752940177917,2.798818826675415,-0.00035782495979219675,-1.1396300792694092,-0.8005906939506531,-0.0005108755431137979,-0.8555746078491211,-0.670805037021637,-2.1387968445196748e-06,0.0,1.8521547317504883,-1.4491081237792969,0.19175104796886444,18.25,0.0,1.937270164489746,-1.4226436614990234,0.19175104796886444,22.5,0.0,2.1529197692871094,-1.3207197189331055,0.19175104796886444,20.75,0.0,2.77554988861084,-1.5946626663208008,0.3835020959377289,13.0,0.0,2.4712085723876953,-1.2617111206054688,-1.5340083837509155,19.5,0.0,2.6285648345947266,-1.349329948425293,-0.9587552398443222,22.0,0.0,2.682209014892578,-1.4487504959106445,-0.9587552398443222,17.0,0.0,1.8585920333862305,-1.3808012008666992,0.0,18.75,0.0,3.1092166900634766,-0.9745359420776367,0.0,16.5,0.0,3.289461135864258,-1.040339469909668,0.0,17.25,0.0,3.3735036849975586,-1.2320280075073242,0.0,15.75,,,,,,,,,,,,,,,,,,,,,,,,,
0.0,-1.1672351360321045,2.611210823059082,-0.0002955377858597785,-1.5922040939331055,-1.054431676864624,-0.00037355307722464204,-1.1762254238128662,-0.8544021248817444,7.803223707014695e-05,0.0,2.0209550857543945,-1.1944770812988281,-0.19175104796886444,19.25,0.0,2.078533172607422,-1.1980533599853516,-0.3835020959377289,23.25,0.0,2.1893978118896484,-1.1976957321166992,-0.3835020959377289,21.0,0.0,2.4890899658203125,-1.4333724975585938,-2.109261527657509,14.75,0.0,2.38645076751709,-1.2291669845581055,-0.9587552398443222,17.5,0.0,1.8875598907470703,-1.376509666442871,0.0,20.75,0.0,1.9104480743408203,-1.4287233352661133,0.0,24.25,0.0,3.3402442932128906,-1.361846923828125,0.0,16.25,0.0,3.3981800079345703,-1.5163421630859375,0.0,12.0,0.0,3.08990478515625,-0.98419189453125,0.0,16.75,0.0,3.284454345703125,-1.072525978088379,0.0,16.25,,,,,,,,,,,,,,,,,,,,,,,,,
0.0,-1.2963645458221436,2.444814443588257,-0.000261360895819962,-1.6251966953277588,-1.2486567497253418,-0.00027820857940241694,-1.0826406478881836,-0.9785802364349365,0.00012957473518326879,0.0,2.1718740463256836,-1.176595687866211,-0.7670041918754578,20.75,0.0,2.05385684967041,-1.020669937133789,-0.19175104796886444,21.75,0.0,2.0896196365356445,-1.1118650436401367,-0.19175104796886444,23.0,0.0,2.317070960998535,-1.226663589477539,-0.7670041918754578,14.5,0.0,1.887202262878418,-1.3704299926757812,0.0,21.5,0.0,3.086686134338379,-1.017451286315918,0.0,16.5,0.0,3.2569169998168945,-1.0836124420166016,0.0,16.25,0.0,3.338456153869629,-1.226663589477539,0.0,13.75,,,,,,,,,,,,,,,,,,,,,,,,,,,,,,,,,,,,,,,,
0.0,-1.3829700946807861,2.3067593574523926,-0.00023264906485565007,-1.583040714263916,-1.3469703197479248,-0.00019680567493196577,-0.9461467266082764,-0.9765222072601318,0.00016923653311096132,0.0,1.970529556274414,-1.2112855911254883,0.19175104796886444,20.5,0.0,2.072453498840332,-1.186966896057129,0.19175104796886444,23.0,0.0,2.268075942993164,-1.0600090026855469,-0.5752531439065933,21.5,0.0,2.351045608520508,-1.1844635009765625,-0.3835020959377289,17.5,0.0,3.185391426086426,-1.2202262878417969,0.0,13.0,,,,,,,,,,,,,,,,,,,,,,,,,,,,,,,,,,,,,,,,,,,,,,,,,,,,,,,
0.0,-1.4625009298324585,2.1972553730010986,-0.00019866798538714647,-1.5389819145202637,-1.365470290184021,-0.00011567862384254113,-0.8346811532974243,-0.8842509984970093,0.00020585684978868812,0.0,3.242611885070801,-1.3321638107299805,-0.7670041918754578,13.5,0.0,3.0205249786376953,-0.9148120880126953,-0.3835020959377289,25.5,0.0,3.082394599914551,-1.0582208633422852,-0.3835020959377289,26.0,0.0,3.1746625900268555,-1.1086463928222656,-0.9587552398443222,21.25,0.0,2.971529960632324,-0.4030466079711914,-0.5752531439065933,22.75,0.0,2.896428108215332,-0.17595291137695312,-0.5752531439065933,17.75,,,,,,,,,,,,,,,,,,,,,,,,,,,,,,,,,,,,,,,,,,,,,,,,,,
0.0,-0.7238585352897644,3.0351338386535645,1.650879676162731e-05,-0.5608766674995422,-0.5771514773368835,5.251246693660505e-05,-0.24518966674804688,-0.6790369749069214,1.2155160220572725e-05,0.0,3.039836883544922,-1.387953758239746,0.19175104796886444,16.5,0.0,2.9604434967041016,-0.9198188781738281,-0.9587552398443222,24.75,0.0,3.034830093383789,-1.107931137084961,0.19175104796886444,24.25,0.0,2.865314483642578,-0.5249977111816406,-0.5752531439065933,26.0,0.0,2.740144729614258,-0.3000497817993164,-0.5752531439065933,17.75,0.0,2.7991533279418945,-0.36263465881347656,-0.5752531439065933,25.25,0.0,3.1557083129882812,-0.8093118667602539,0.0,26.5,,,,,,,,,,,,,,,,,,,,,,,,,,,,,,,,,,,,,,,,,,,,,
0.0,-0.7712883949279785,2.9724435806274414,1.6718286133254878e-05,-0.573302149772644,-0.6353152990341187,4.767071732203476e-05,-0.2392728179693222,-0.6576202511787415,8.802550837572198e-06,0.0,1.8281936645507812,-1.25885009765625,-0.19175104796886444,12.25,0.0,2.946138381958008,-1.7294883728027344,-0.3835020959377289,14.0,0.0,2.784848213195801,-1.3335943222045898,-1.1505062878131866,16.5,0.0,2.9271841049194336,-1.4208555221557617,-1.342257335782051,15.5,0.0,2.624630928039551,-0.6401538848876953,-1.1505062878131866,16.75,0.0,2.7780532836914062,-0.8096694946289062,-1.1505062878131866,20.75,0.0,2.7283430099487305,-0.6068944931030273,-1.1505062878131866,21.5,0.0,1.8929243087768555,-1.522064208984375,0.0,12.5,,,,,,,,,,,,,,,,,,,,,,,,,,,,,,,,,,,,,,,,
0.0,-0.8607049584388733,2.8562912940979004,1.6528667401871644e-05,-0.6159218549728394,-0.8518451452255249,4.261257709003985e-05,-0.2200283408164978,-0.8870080709457397,4.890338004770456e-06,0.0,2.2112131118774414,-1.0936260223388672,-0.19175104796886444,15.25,0.0,2.6700496673583984,-1.2377500534057617,-1.9175104796886444,20.25,0.0,2.7544498443603516,-1.3042688369750977,-1.9175104796886444,17.0,0.0,2.8302669525146484,-1.474142074584961,-1.9175104796886444,13.75,0.0,2.441883087158203,-0.9148120880126953,-1.5340083837509155,17.75,0.0,2.5995969772338867,-1.0006427764892578,-1.5340083837509155,18.5,0.0,1.798868179321289,-1.399397850036621,0.0,18.5,0.0,1.7906427383422852,-1.4702081680297852,0.0,18.75,,,,,,,,,,,,,,,,,,,,,,,,,,,,,,,,,,,,,,,,
0.0,-0.9624649882316589,2.695652484893799,1.5788516975590028e-05,-0.656193196773529,-1.1394681930541992,3.696060593938455e-05,-0.18536046147346497,-1.1801364421844482,7.458738764398731e-07,0.0,2.4214982986450195,-1.132965087890625,-1.1505062878131866,13.5,0.0,2.5849342346191406,-1.374363899230957,-0.19175104796886444,13.5,0.0,2.181887626647949,-0.9312629699707031,-1.1505062878131866,14.25,0.0,2.2602081298828125,-0.8994340896606445,-1.1505062878131866,20.75,0.0,2.3224353790283203,-0.8776187896728516,-1.1505062878131866,19.25,0.0,1.9201040267944336,-1.2871026992797852,0.0,20.0,0.0,2.0374059677124023,-1.2356042861938477,0.0,22.25,,,,,,,,,,,,,,,,,,,,,,,,,,,,,,,,,,,,,,,,,,,,,
0.0,-1.0335050821304321,2.5417463779449463,1.5189148143690545e-05,-0.6812791228294373,-1.3102701902389526,3.1807663617655635e-05,-0.18758942186832428,-1.2337169647216797,-2.353386435061111e-06,0.0,2.1289587020874023,-1.0045766830444336,-0.7670041918754578,16.0,0.0,2.1936893463134766,-1.1733770370483398,-0.3835020959377289,13.0,0.0,2.075314521789551,-0.9241104125976562,-0.7670041918754578,15.0,0.0,1.9472837448120117,-1.2309551239013672,0.0,20.0,0.0,2.072453498840332,-1.190185546875,0.0,22.25,,,,,,,,,,,,,,,,,,,,,,,,,,,,,,,,,,,,,,,,,,,,,,,,,,,,,,,
0.0,-1.116991639137268,2.387129545211792,1.5495874322368763e-05,-0.7419247627258301,-1.4394290447235107,2.8125734388595447e-05,-0.2384323924779892,-1.2147505283355713,-4.265154530003201e-06,0.0,3.2973289489746094,-1.2373924255371094,-0.3835020959377289,18.0,0.0,3.2547712326049805,-1.0671615600585938,-0.5752531439065933,23.5,0.0,3.2175779342651367,-0.8933544158935547,-0.5752531439065933,24.0,0.0,3.0891895294189453,-0.10263919830322266,-0.5752531439065933,21.75,0.0,2.9489994049072266,0.08153915405273438,-0.5752531439065933,23.75,0.0,2.891421318054199,0.10371208190917969,-0.5752531439065933,19.75,0.0,3.452897071838379,-1.455545425415039,0.0,18.0,0.0,3.3960342407226562,-1.166224479675293,0.0,22.25,0.0,3.3359527587890625,-0.9233951568603516,0.0,24.75,0.0,3.288745880126953,-0.48351287841796875,0.0,25.0,,,,,,,,,,,,,,,,,,,,,,,,,,,,,,
0.0,-0.3329921066761017,3.1494646072387695,1.8513721045110287e-07,0.17830657958984375,-0.6016666889190674,4.414949330566742e-07,-0.11078179627656937,-0.579181432723999,2.3377219804388005e-07,0.0,3.231525421142578,-1.5925168991088867,-0.7670041918754578,16.75,0.0,3.3205747604370117,-1.7595291137695312,-1.1505062878131866,13.5,0.0,3.0809640884399414,-1.2359619140625,-0.7670041918754578,19.5,0.0,3.189682960510254,-1.3550519943237305,-0.7670041918754578,19.0,0.0,3.021240234375,-0.5214214324951172,-0.7670041918754578,18.75,0.0,2.86710262298584,-0.19598007202148438,-0.3835020959377289,18.5,0.0,2.9207468032836914,-0.16736984252929688,-0.3835020959377289,22.0,0.0,3.383159637451172,-1.1944770812988281,0.0,21.75,0.0,3.3223628997802734,-0.9273290634155273,0.0,24.5,0.0,3.2726526260375977,-0.5768537521362305,0.0,25.75,0.0,2.8824806213378906,0.08368492126464844,0.0,17.25,,,,,,,,,,,,,,,,,,,,,,,,,
0.0,-0.4123465418815613,3.0859007835388184,1.798179454226556e-07,0.00430123507976532,-0.6535502076148987,4.0561647551839997e-07,-0.2490004003047943,-0.5637048482894897,1.9896346259429265e-07,0.0,3.0584335327148438,-1.1479854583740234,-1.1505062878131866,19.75,0.0,3.1474828720092773,-1.370072364807129,-0.7670041918754578,17.25,0.0,3.3266544342041016,-1.3221502304077148,-1.5340083837509155,14.25,0.0,2.9872655868530273,-0.8933544158935547,-0.5752531439065933,21.0,0.0,2.9343366622924805,-0.550389289855957,-0.5752531439065933,19.25,0.0,2.8460025787353516,-0.3579854965209961,-0.5752531439065933,15.25,0.0,3.3202171325683594,-0.9934902191162109,0.0,24.0,0.0,3.3806562423706055,-1.199483871459961,0.0,21.75,0.0,3.2515525817871094,-0.6315708160400391,0.0,25.0,,,,,,,,,,,,,,,,,,,,,,,,,,,,,,,,,,,
0.0,-0.5760288238525391,3.019165515899658,1.6353577336758462e-07,-0.29184433817863464,-0.7368561029434204,3.566612463146157e-07,-0.473846435546875,-0.6170191168785095,1.5780329931658343e-07,0.0,1.8428564071655273,-1.361846923828125,-0.19175104796886444,14.25,0.0,1.9344091415405273,-1.4019012451171875,-0.19175104796886444,15.5,0.0,3.0727386474609375,-1.4287233352661133,-0.19175104796886444,15.0,0.0,2.874612808227539,-1.087188720703125,-0.9587552398443222,19.25,0.0,2.95865535736084,-1.2860298156738281,-0.19175104796886444,17.25,0.0,2.553105354309082,-0.7721185684204102,-0.19175104796886444,15.75,0.0,2.8209686279296875,-0.847935676574707,-0.19175104796886444,22.25,0.0,2.7701854705810547,-0.5464553833007812,-0.19175104796886444,20.75,0.0,1.839280128479004,-1.3668537139892578,0.0,17.0,0.0,1.875758171081543,-1.4162063598632812,0.0,17.75,0.0,3.376007080078125,-1.1991262435913086,0.0,21.0,0.0,3.310561180114746,-0.9759664535522461,0.0,21.75,0.0,3.082752227783203,-0.5925893783569336,0.0,21.75,0.0,3.2290220260620117,-0.70953369140625,0.0,21.5,0.0,2.878904342651367,-0.051856040954589844,0.0,19.5,,,,,
0.0,-0.7438493967056274,2.9458000659942627,1.5098419225978432e-07,-0.5873923897743225,-0.7522361874580383,3.142283446777583e-07,-0.6987873315811157,-0.5217740535736084,1.2353706324574887e-07,0.0,1.8496513366699219,-1.3303756713867188,-0.19175104796886444,21.5,0.0,1.9869804382324219,-1.2956857681274414,-0.19175104796886444,22.0,0.0,2.8656721115112305,-1.3521909713745117,-0.19175104796886444,13.0,0.0,2.4161338806152344,-0.9284019470214844,-0.9587552398443222,22.0,0.0,2.6797056198120117,-1.188039779663086,-0.7670041918754578,20.75,0.0,2.779841423034668,-1.2205839157104492,-0.19175104796886444,18.5,0.0,2.6092529296875,-0.9105205535888672,-0.7670041918754578,22.5,0.0,1.8471479415893555,-1.3475418090820312,0.0,22.0,0.0,1.891493797302246,-1.3750791549682617,0.0,22.5,0.0,2.1314620971679688,-1.2978315353393555,0.0,18.0,0.0,3.2994747161865234,-1.0396242141723633,0.0,21.75,0.0,3.3663511276245117,-1.1959075927734375,0.0,20.25,0.0,3.0434131622314453,-0.7270574569702148,0.0,18.75,0.0,3.1975507736206055,-0.8336305618286133,0.0,19.75,0.0,2.854585647583008,-0.19097328186035156,0.0,20.5,0.0,2.9518604278564453,-0.2657175064086914,0.0,23.25
0.0,-0.9295386075973511,2.8079512119293213,1.3849319202563493e-07,-0.8808212280273438,-0.8945956826210022,2.716401183988637e-07,-0.8947800397872925,-0.599600076675415,9.006393497656973e-08,0.0,1.923680305480957,-1.3031959533691406,0.19175104796886444,16.5,0.0,2.1300315856933594,-1.1626482009887695,0.19175104796886444,20.5,0.0,2.7126073837280273,-1.3200044631958008,0.19175104796886444,16.5,0.0,2.3900270462036133,-0.9466409683227539,-1.9175104796886444,20.75,0.0,2.5763511657714844,-1.0263919830322266,-1.342257335782051,20.25,0.0,2.6689767837524414,-1.190185546875,-0.9587552398443222,21.75,0.0,1.855015754699707,-1.336812973022461,0.0,23.25,0.0,1.9447803497314453,-1.3289451599121094,0.0,23.75,0.0,2.35748291015625,-0.9970664978027344,0.0,21.0,0.0,3.1489133834838867,-0.926971435546875,0.0,18.75,0.0,2.9168128967285156,-0.40912628173828125,0.0,23.25,,,,,,,,,,,,,,,,,,,,,,,,,
0.0,-1.0697274208068848,2.65511417388916,1.2460890275178826e-07,-1.0558104515075684,-1.0573856830596924,2.2853737391415052e-07,-0.9658442139625549,-0.7060174942016602,5.790725410292907e-08,0.0,2.5173425674438477,-1.4469623565673828,-1.342257335782051,17.25,0.0,2.562403678894043,-1.6257762908935547,-0.19175104796886444,12.25,0.0,2.0864009857177734,-1.0603666305541992,-0.19175104796886444,18.0,0.0,2.170085906982422,-1.0439157485961914,-0.19175104796886444,22.0,0.0,2.2780895233154297,-1.088261604309082,-0.7670041918754578,20.5,0.0,2.4268627166748047,-1.2263059616088867,-0.7670041918754578,18.75,0.0,3.188967704772949,-1.7069578170776367,0.19175104796886444,12.5,0.0,1.8700361251831055,-1.3228654861450195,0.0,23.5,0.0,1.9791126251220703,-1.2949705123901367,0.0,24.5,0.0,2.3456811904907227,-1.0371208190917969,0.0,22.0,0.0,2.7397871017456055,-0.5528926849365234,0.0,23.25,0.0,2.893209457397461,-0.5418062210083008,0.0,23.0,,,,,,,,,,,,,,,,,,,,
0.0,-1.218929409980774,2.5225138664245605,1.0550963480682185e-07,-1.2241531610488892,-1.1680126190185547,1.8116364230991167e-07,-1.0292705297470093,-0.7447274923324585,2.5178799489822268e-08,0.0,2.342104911804199,-1.3082027435302734,-1.1505062878131866,17.75,0.0,2.2312402725219727,-1.142263412475586,-1.1505062878131866,20.0,0.0,2.107858657836914,-0.8901357650756836,-0.5752531439065933,20.75,0.0,2.1543502807617188,-0.9745359420776367,-0.5752531439065933,22.0,0.0,1.9294023513793945,-1.2230873107910156,0.0,24.25,0.0,2.02023983001709,-1.2148618698120117,0.0,25.0,0.0,2.3603439331054688,-0.9756088256835938,0.0,22.5,0.0,3.133535385131836,-1.2928247451782227,0.0,16.25,0.0,2.967953681945801,-0.8500814437866211,0.0,17.75,0.0,2.7304887771606445,-0.571131706237793,0.0,23.25,0.0,2.87783145904541,-0.5593299865722656,0.0,22.0,,,,,,,,,,,,,,,,,,,,,,,,,
0.0,-1.2778602838516235,2.393289804458618,1.0087566693073313e-07,-1.1912447214126587,-1.2618253231048584,1.542803858001207e-07,-0.8971428275108337,-0.7781791090965271,6.794033780010977e-09,0.0,2.000570297241211,-1.085042953491211,0.19175104796886444,19.5,0.0,2.123236656188965,-1.1769533157348633,0.19175104796886444,21.25,0.0,2.2187232971191406,-1.2613534927368164,-0.5752531439065933,23.5,0.0,2.3020505905151367,-1.280665397644043,-1.5340083837509155,20.0,0.0,2.8356313705444336,-0.7020235061645508,0.0,21.0,,,,,,,,,,,,,,,,,,,,,,,,,,,,,,,,,,,,,,,,,,,,,,,,,,,,,,,
0.0,-1.3665589094161987,2.2654569149017334,9.285268731673568e-08,-1.224092721939087,-1.3257215023040771,1.2476984068143793e-07,-0.8517068028450012,-0.7577990293502808,-1.1926390541816545e-08,0.0,3.1464099884033203,-0.9459257125854492,-0.9587552398443222,18.25,0.0,3.290534019470215,-1.016378402709961,-0.5752531439065933,17.75,0.0,3.389596939086914,-1.1540651321411133,-0.7670041918754578,13.5,0.0,3.021240234375,-0.6480216979980469,-0.7670041918754578,18.75,0.0,2.889275550842285,-0.15306472778320312,-0.3835020959377289,14.75,0.0,2.957582473754883,-0.2084970474243164,-0.3835020959377289,19.75,0.0,3.7643909454345703,-1.4340877532958984,0.0,13.75,0.0,3.499746322631836,-1.2946128845214844,0.0,17.5,,,,,,,,,,,,,,,,,,,,,,,,,,,,,,,,,,,,,,,,
0.0,0.0019259005784988403,3.0955185890197754,8.392271877433188e-10,0.6126233339309692,-0.5391266345977783,8.735113743441048e-10,0.06933529675006866,-0.5129942297935486,-2.499999651739415e-10,0.0,3.0344724655151367,-1.032114028930664,-1.1505062878131866,14.75,0.0,2.967238426208496,-0.5164146423339844,-0.5752531439065933,20.25,0.0,2.8606653213500977,-0.30612945556640625,-0.5752531439065933,19.5,0.0,2.901792526245117,-0.4259347915649414,-0.5752531439065933,23.0,0.0,3.7679672241210938,-1.4244318008422852,0.0,13.25,0.0,3.5190582275390625,-1.2534856796264648,0.0,17.75,,,,,,,,,,,,,,,,,,,,,,,,,,,,,,,,,,,,,,,,,,,,,,,,,,
0.0,-0.06377764046192169,3.0355923175811768,7.429703519079567e-10,0.4078773558139801,-0.583707869052887,6.301423827181907e-10,-0.10304336249828339,-0.4977588951587677,-3.7941910724370587e-10,0.0,1.8306970596313477,-1.326441764831543,-0.19175104796886444,12.5,0.0,2.0334720611572266,-1.3260841369628906,-0.19175104796886444,12.75,0.0,3.07309627532959,-1.4562606811523438,-1.9175104796886444,13.0,0.0,2.910733222961426,-1.2431144714355469,-1.1505062878131866,16.0,0.0,2.805948257446289,-0.8529424667358398,-0.3835020959377289,26.75,0.0,2.8274059295654297,-1.0453462600708008,-1.1505062878131866,23.0,0.0,2.646803855895996,-0.6541013717651367,-0.9587552398443222,19.25,0.0,2.7608871459960938,-0.6265640258789062,-0.3835020959377289,25.0,0.0,1.840353012084961,-1.4476776123046875,0.0,13.75,0.0,1.8825531005859375,-1.4562606811523438,0.0,17.5,0.0,1.9783973693847656,-1.5360116958618164,0.0,13.75,0.0,3.09598445892334,-0.19025802612304688,0.0,24.75,,,,,,,,,,,,,,,,,,,,
0.0,-0.22339196503162384,2.9727096557617188,6.381742356786901e-10,0.06804212927818298,-0.614479124546051,3.93679921995016e-10,-0.369626522064209,-0.46294811367988586,-4.962673605390933e-10,0.0,1.7781257629394531,-1.4630556106567383,-0.19175104796886444,13.5,0.0,2.98154354095459,-1.6618967056274414,-0.3835020959377289,13.5,0.0,2.6797056198120117,-1.2438297271728516,-0.5752531439065933,22.75,0.0,2.908945083618164,-1.3443231582641602,-0.3835020959377289,14.75,0.0,2.7855634689331055,-1.2423992156982422,-0.5752531439065933,19.5,0.0,2.5827884674072266,-0.7113218307495117,-0.9587552398443222,15.75,0.0,2.698659896850586,-0.7874965667724609,-0.9587552398443222,20.25,0.0,1.8671751022338867,-1.4426708221435547,0.0,19.25,0.0,1.8521547317504883,-1.3707876205444336,0.0,16.5,0.0,2.2863149642944336,-1.175522804260254,0.0,14.75,0.0,3.473997116088867,-1.336812973022461,0.0,13.25,0.0,2.8717517852783203,-0.21529197692871094,0.0,20.25,,,,,,,,,,,,,,,,,,,,
0.0,-0.32836347818374634,2.881715774536133,5.71139635585638e-10,-0.15056267380714417,-0.7134261727333069,2.1866293498096212e-10,-0.5156135559082031,-0.523388147354126,-5.709408501530788e-10,0.0,2.047419548034668,-1.1801719665527344,0.19175104796886444,12.5,0.0,2.713322639465332,-1.374363899230957,0.19175104796886444,14.25,0.0,2.293825149536133,-0.9756088256835938,-1.5340083837509155,20.5,0.0,2.397894859313965,-0.9273290634155273,-1.5340083837509155,23.0,0.0,2.5091171264648438,-1.0203123092651367,-1.342257335782051,21.25,0.0,2.63822078704834,-1.16729736328125,-1.342257335782051,19.25,0.0,1.8593072891235352,-1.3439655303955078,0.0,19.25,0.0,1.9344091415405273,-1.386880874633789,0.0,21.25,0.0,2.3328065872192383,-1.0800361633300781,0.0,19.0,0.0,2.793431282043457,-0.49245357513427734,0.0,21.75,,,,,,,,,,,,,,,,,,,,,,,,,,,,,,
0.0,-0.6044334173202515,2.709188461303711,4.1600817235476484e-10,-0.6182724237442017,-0.9857075214385986,-4.878014658871166e-11,-0.8405691385269165,-0.7921976447105408,-6.970931054617324e-10,0.0,2.074599266052246,-1.0346174240112305,-1.342257335782051,20.5,0.0,2.275228500366211,-1.0335445404052734,-0.7670041918754578,21.25,0.0,2.4161338806152344,-1.1397600173950195,-0.9587552398443222,17.75,0.0,2.607107162475586,-1.2373924255371094,-1.1505062878131866,12.5,0.0,2.1779537200927734,-0.9802579879760742,-0.7670041918754578,23.25,0.0,2.0159482955932617,-1.1279582977294922,0.0,18.75,0.0,2.1572113037109375,-1.0578632354736328,0.0,21.75,,,,,,,,,,,,,,,,,,,,,,,,,,,,,,,,,,,,,,,,,,,,,
0.0,-0.8473125696182251,2.525169610977173,2.6959237620083343e-10,-0.9902180433273315,-1.2048001289367676,-2.8439431365434586e-10,-1.0686622858047485,-0.9337063431739807,-7.953377956226859e-10,0.0,2.2641420364379883,-1.2398958206176758,0.19175104796886444,14.75,0.0,2.40325927734375,-1.3196468353271484,-0.3835020959377289,16.0,0.0,2.0273923873901367,-0.9777545928955078,-0.19175104796886444,15.25,0.0,2.113938331604004,-1.0671615600585938,-0.19175104796886444,14.25,0.0,2.596735954284668,-1.2520551681518555,-0.3835020959377289,12.5,0.0,2.018451690673828,-1.124739646911621,0.0,18.75,0.0,2.1632909774780273,-1.07574462890625,0.0,21.75,0.0,2.3767948150634766,-0.9884834289550781,0.0,21.25,0.0,2.6628971099853516,-0.8289813995361328,0.0,22.0,0.0,2.8542280197143555,-0.6623268127441406,0.0,22.75,,,,,,,,,,,,,,,,,,,,,,,,,,,,,,
0.0,-1.0858367681503296,2.3934645652770996,1.6298777605339154e-10,-1.3564541339874268,-1.2587611675262451,-4.5524589653567205e-10,-1.312718391418457,-0.8446649312973022,-8.491919945008419e-10,0.0,1.9841194152832031,-1.1544227600097656,0.5752531439065933,19.75,0.0,2.112150192260742,-1.1268854141235352,0.5752531439065933,21.5,0.0,2.2290945053100586,-1.1665821075439453,0.5752531439065933,20.5,0.0,2.362489700317383,-1.2524127960205078,-0.9587552398443222,17.25,0.0,2.0055770874023438,-1.1347532272338867,0.0,21.25,0.0,2.148270606994629,-1.0553598403930664,0.0,23.5,0.0,2.3796558380126953,-0.9201765060424805,0.0,21.5,0.0,2.6453733444213867,-0.8536577224731445,0.0,21.75,0.0,2.824544906616211,-0.754237174987793,0.0,21.75,,,,,,,,,,,,,,,,,,,,,,,,,,,,,,,,,,,
0.0,-1.2684705257415771,2.2628772258758545,8.160026820913657e-11,-1.6064385175704956,-1.2928342819213867,-5.809327463524028e-10,-1.4536405801773071,-0.7441974878311157,-8.737318646367953e-10,,,,,,,,,,,,,,,,,,,,,,,,,,,,,,,,,,,,,,,,,,,,,,,,,,,,,,,,,,,,,,,,,,,,,,,,,,,,,,,,
,,,,,,,,,,0.0,3.1714439392089844,-1.4712810516357422,-0.3835020959377289,19.5,0.0,3.2476186752319336,-1.5091896057128906,-0.3835020959377289,15.5,0.0,3.176093101501465,-0.5983114242553711,-0.3835020959377289,17.75,0.0,3.037691116333008,-0.16701221466064453,-0.19175104796886444,22.25,0.0,2.960801124572754,0.03647804260253906,-0.3835020959377289,23.5,0.0,2.895355224609375,0.09655952453613281,-0.3835020959377289,19.25,0.0,3.2150745391845703,-0.4928112030029297,0.0,23.5,,,,,,,,,,,,,,,,,,,,,,,,,,,,,,,,,,,,,,,,,,,,,
