tid,posx,posy,posz,velx,vely,velz,accx,accy,accz,pointx1,pointy1,pointz1,doppler1,snr1,pointx2,pointy2,pointz2,doppler2,snr2,pointx3,pointy3,pointz3,doppler3,snr3,pointx4,pointy4,pointz4,doppler4,snr4,pointx5,pointy5,pointz5,doppler5,snr5,pointx6,pointy6,pointz6,doppler6,snr6,pointx7,pointy7,pointz7,doppler7,snr7,pointx8,pointy8,pointz8,doppler8,snr8,pointx9,pointy9,pointz9,doppler9,snr9,pointx10,pointy10,pointz10,doppler10,snr10,pointx11,pointy11,pointz11,doppler11,snr11,pointx12,pointy12,pointz12,doppler12,snr12,pointx13,pointy13,pointz13,doppler13,snr13,pointx14,pointy14,pointz14,doppler14,snr14,pointx15,pointy15,pointz15,doppler15,snr15,pointx16,pointy16,pointz16,doppler16,snr16,pointx17,pointy17,pointz17,doppler17,snr17
0.0,-1.877081194834318e-05,3.335010528564453,-0.1597307175397873,-9.241957013728097e-05,-0.17864933609962463,1.2521170377731323,-2.693661008379422e-05,-0.23757404088974,0.689537525177002,0.0,3.7658214569091797,-1.4301538467407227,-0.19175104796886444,12.25,0.0,3.3702850341796875,-0.6612539291381836,-0.19175104796886444,21.0,0.0,3.2025575637817383,-0.1881122589111328,-0.19175104796886444,22.25,0.0,3.058791160583496,0.05507469177246094,-0.3835020959377289,27.5,0.0,2.9489994049072266,0.12767314910888672,-0.3835020959377289,19.25,0.0,3.0105113983154297,0.10085105895996094,-0.3835020959377289,27.25,0.0,3.4825801849365234,-1.3647079467773438,0.0,18.25,0.0,3.4464597702026367,-1.0582208633422852,0.0,24.5,0.0,3.349184989929199,-0.834345817565918,0.0,26.5,,,,,,,,,,,,,,,,,,,,,,,,,,,,,,,,,,,,,,,,
0.0,-2.206944554927759e-05,3.2700748443603516,-0.04964559152722359,-8.817474008537829e-05,-0.28680574893951416,1.2761515378952026,-2.331598625460174e-05,-0.33798056840896606,0.6527165174484253,0.0,3.0194520950317383,-1.759171485900879,-0.5752531439065933,21.25,0.0,3.1603574752807617,-1.6486644744873047,-0.5752531439065933,17.5,0.0,3.1893253326416016,-0.4037618637084961,-0.19175104796886444,19.5,0.0,3.07309627532959,-0.08976459503173828,-0.5752531439065933,23.25,0.0,2.9064416885375977,0.25391578674316406,-0.5752531439065933,16.75,0.0,2.9883384704589844,0.15592575073242188,-0.5752531439065933,22.75,0.0,3.3745765686035156,-1.2928247451782227,0.0,24.5,0.0,3.447890281677246,-1.4491081237792969,0.0,18.5,0.0,3.3109188079833984,-1.056075096130371,0.0,26.25,0.0,3.2215118408203125,-0.17130374908447266,0.0,27.75,,,,,,,,,,,,,,,,,,,,,,,,,,,,,,,,,,,
0.0,-2.3326239897869527e-05,3.214280605316162,-0.03899144381284714,-8.220819290727377e-05,-0.36029189825057983,1.1342226266860962,-1.902535223052837e-05,-0.3743225336074829,0.48804932832717896,0.0,3.37064266204834,-1.0700225830078125,-0.19175104796886444,15.0,0.0,3.307342529296875,-0.8701086044311523,-0.19175104796886444,21.0,0.0,3.2300949096679688,-0.5568265914916992,-0.19175104796886444,21.75,0.0,2.979755401611328,0.03933906555175781,-0.3835020959377289,24.0,0.0,3.070950508117676,-0.05221366882324219,-1.1505062878131866,23.5,0.0,2.9114484786987305,0.11479854583740234,-0.3835020959377289,18.25,0.0,3.4378767013549805,-1.5882253646850586,0.0,17.0,0.0,3.3295154571533203,-0.8100271224975586,0.0,25.0,0.0,3.480076789855957,-0.8783340454101562,0.0,19.25,,,,,,,,,,,,,,,,,,,,,,,,,,,,,,,,,,,,,,,,
0.0,-2.5026143703144044e-05,3.1412997245788574,0.006469331681728363,-7.667046884307638e-05,-0.4550030827522278,1.0571296215057373,-1.5133067790884525e-05,-0.4379095435142517,0.38629865646362305,0.0,3.3055543899536133,-1.2742280960083008,-0.19175104796886444,14.5,0.0,3.140687942504883,-0.9391307830810547,-0.3835020959377289,25.75,0.0,3.1936168670654297,-1.0553598403930664,-0.3835020959377289,20.75,0.0,3.078460693359375,-0.6819963455200195,0.19175104796886444,24.0,0.0,2.960801124572754,-0.11515617370605469,-0.9587552398443222,22.5,0.0,2.7469396591186523,0.20563602447509766,-0.9587552398443222,12.75,0.0,2.8399229049682617,0.15592575073242188,-0.9587552398443222,20.75,0.0,3.4450292587280273,-1.0703802108764648,0.0,19.5,0.0,3.3191442489624023,-0.845789909362793,0.0,24.75,,,,,,,,,,,,,,,,,,,,,,,,,,,,,,,,,,,,,,,,
0.0,-2.4415166990365833e-05,3.067181348800659,-0.027256980538368225,-6.891018711030483e-05,-0.5411641597747803,0.8515865802764893,-1.0279397429258097e-05,-0.485962450504303,0.18861326575279236,0.0,3.195047378540039,-1.2624263763427734,-0.7670041918754578,16.5,0.0,3.317713737487793,-1.39617919921875,-0.5752531439065933,14.75,0.0,3.5791397094726562,-1.2105703353881836,-0.9587552398443222,12.5,0.0,3.0580759048461914,-0.8082389831542969,-0.9587552398443222,20.0,0.0,3.173947334289551,-0.8057355880737305,-0.9587552398443222,19.5,0.0,2.891063690185547,-0.14483928680419922,-0.3835020959377289,16.25,0.0,2.6907920837402344,0.13124942779541016,-0.7670041918754578,18.25,0.0,2.7208328247070312,0.1226663589477539,-0.3835020959377289,21.0,0.0,3.5691261291503906,-1.222372055053711,0.0,13.75,,,,,,,,,,,,,,,,,,,,,,,,,,,,,,,,,,,,,,,,
0.0,-2.489669896021951e-05,3.007829427719116,-0.0660502091050148,-6.293492333497852e-05,-0.5746219754219055,0.6622098684310913,-6.6454222178435884e-06,-0.4581732749938965,0.02185504138469696,0.0,3.0498504638671875,-1.1644363403320312,-1.1505062878131866,24.25,0.0,3.116011619567871,-1.2559890747070312,-0.7670041918754578,19.5,0.0,3.2358169555664062,-1.3808012008666992,-0.5752531439065933,12.25,0.0,3.0183792114257812,-0.9115934371948242,-1.1505062878131866,25.5,0.0,2.93576717376709,-0.4438161849975586,-0.3835020959377289,22.75,0.0,2.6793479919433594,-0.11336803436279297,-0.3835020959377289,18.5,0.0,2.7823448181152344,-0.015735626220703125,-0.3835020959377289,21.0,0.0,3.5326480865478516,-1.3250112533569336,0.0,14.0,,,,,,,,,,,,,,,,,,,,,,,,,,,,,,,,,,,,,,,,,,,,,
0.0,-2.62147714238381e-05,2.9437050819396973,-0.12254638969898224,-5.8330726460553706e-05,-0.5784785151481628,0.4621962308883667,-3.963491508329753e-06,-0.3792889714241028,-0.1393543928861618,0.0,2.8220415115356445,-1.2985467910766602,-1.72575943171978,23.25,0.0,2.9447078704833984,-1.363992691040039,-2.109261527657509,18.25,0.0,3.0798912048339844,-1.485586166381836,0.19175104796886444,15.5,0.0,3.257274627685547,-1.5410184860229492,-1.1505062878131866,13.75,0.0,2.742648124694824,-1.122593879699707,-1.1505062878131866,22.25,0.0,2.5191307067871094,-0.4724264144897461,-0.3835020959377289,14.0,0.0,2.584218978881836,-0.4717111587524414,-0.3835020959377289,20.75,0.0,2.67791748046875,-0.5886554718017578,-0.3835020959377289,20.5,,,,,,,,,,,,,,,,,,,,,,,,,,,,,,,,,,,,,,,,,,,,,
0.0,-2.814567596942652e-05,2.8793957233428955,-0.20525412261486053,-5.453134508570656e-05,-0.5968052744865417,0.2336190640926361,-1.7997303984884638e-06,-0.34238457679748535,-0.3130466639995575,0.0,2.7118921279907227,-1.318216323852539,-1.9175104796886444,16.25,0.0,2.545952796936035,-1.0914802551269531,-1.342257335782051,23.0,0.0,2.651095390319824,-1.1647939682006836,-1.342257335782051,21.75,0.0,2.5033950805664062,-0.8776187896728516,0.19175104796886444,21.5,0.0,2.4726390838623047,-0.5532503128051758,-0.9587552398443222,14.0,,,,,,,,,,,,,,,,,,,,,,,,,,,,,,,,,,,,,,,,,,,,,,,,,,,,,,,,,,,,
0.0,-2.8738750188495032e-05,2.7865710258483887,-0.2957516014575958,-4.9184691306436434e-05,-0.6755499839782715,0.011273279786109924,1.1244264896959066e-06,-0.38964903354644775,-0.468492716550827,0.0,2.590656280517578,-1.5331506729125977,-1.1505062878131866,13.25,0.0,2.4014711380004883,-1.087188720703125,-1.5340083837509155,23.75,0.0,2.434372901916504,-1.216292381286621,-1.5340083837509155,25.5,0.0,2.4944543838500977,-1.3142824172973633,-1.5340083837509155,21.0,0.0,3.0466318130493164,-1.6472339630126953,0.3835020959377289,13.0,0.0,2.3964643478393555,-1.0846853256225586,-1.5340083837509155,23.5,0.0,2.376437187194824,-0.7470846176147461,-0.9587552398443222,19.0,0.0,2.2770166397094727,-0.6108283996582031,-0.9587552398443222,13.25,0.0,2.054929733276367,-1.2288093566894531,0.0,20.25,0.0,3.234744071960449,-1.0832548141479492,0.0,18.25,0.0,2.9268264770507812,-0.2853870391845703,0.0,23.0,,,,,,,,,,,,,,,,,,,,,,,,,,,,,,
0.0,-2.4721684894757345e-05,2.7058513164520264,-0.661668062210083,-3.94016424252186e-05,-0.7098981142044067,-0.6322802901268005,6.14365717410692e-06,-0.376840740442276,-0.944693386554718,0.0,2.01416015625,-1.1036396026611328,-1.5340083837509155,18.0,0.0,2.2537708282470703,-1.0385513305664062,-1.5340083837509155,20.5,0.0,2.3674964904785156,-1.131892204284668,-0.19175104796886444,26.0,0.0,2.418637275695801,-1.1626482009887695,-0.19175104796886444,26.0,0.0,2.499103546142578,-1.2298822402954102,-0.3835020959377289,17.75,0.0,1.7287731170654297,-1.427292823791504,0.0,23.75,0.0,1.9909143447875977,-1.3436079025268555,0.0,22.25,0.0,3.182530403137207,-1.2077093124389648,0.0,17.75,0.0,2.465486526489258,-0.9062290191650391,0.0,25.0,0.0,2.8628110885620117,-0.527501106262207,0.0,20.25,,,,,,,,,,,,,,,,,,,,,,,,,,,,,,,,,,,
0.0,-2.019330713665113e-05,2.5407121181488037,-1.0057322978973389,-2.924713226093445e-05,-0.8918228149414062,-1.1880837678909302,1.1186266419827007e-05,-0.5217217803001404,-1.3170372247695923,0.0,1.9855499267578125,-1.3042688369750977,-0.5752531439065933,24.75,0.0,2.065300941467285,-1.432657241821289,-0.5752531439065933,22.75,0.0,1.9887685775756836,-1.0918378829956055,-0.5752531439065933,23.0,0.0,2.295255661010742,-1.3850927352905273,-0.3835020959377289,19.5,0.0,2.4046897888183594,-1.4666318893432617,-0.5752531439065933,14.5,0.0,1.8489360809326172,-1.2856721878051758,0.0,24.25,0.0,2.092123031616211,-1.1805295944213867,0.0,24.0,0.0,2.421855926513672,-0.9369850158691406,0.0,25.5,0.0,2.5631189346313477,-0.8990764617919922,0.0,25.0,,,,,,,,,,,,,,,,,,,,,,,,,,,,,,,,,,,,,,,,
0.0,-1.9176322041403182e-07,3.1643896102905273,-0.27155831456184387,1.8436512050357123e-07,0.06182577461004257,0.05584190785884857,4.815759098164563e-07,0.06307777762413025,0.08400166034698486,0.0,2.9268264770507812,-2.367854118347168,-0.19175104796886444,14.75,0.0,2.962946891784668,-1.9075870513916016,-0.19175104796886444,16.0,0.0,3.1621456146240234,-1.8095970153808594,-0.19175104796886444,15.75,0.0,3.119945526123047,-0.3107786178588867,-0.19175104796886444,21.5,0.0,3.0412673950195312,0.00035762786865234375,-0.19175104796886444,28.25,0.0,2.956867218017578,0.17058849334716797,-0.19175104796886444,18.5,0.0,3.0176639556884766,0.10442733764648438,-0.19175104796886444,27.5,0.0,3.363490104675293,-1.2313127517700195,0.0,20.75,0.0,3.0916929244995117,-0.11622905731201172,0.0,30.5,0.0,3.0373334884643555,0.019669532775878906,0.0,28.25,0.0,2.956509590148926,0.11515617370605469,0.0,19.25,,,,,,,,,,,,,,,,,,,,,,,,,,,,,,
0.0,-1.2771357660312788e-07,3.1483511924743652,-0.23615238070487976,2.8095928428228945e-07,0.00895257294178009,0.11207195371389389,5.092598485134658e-07,-0.015446677803993225,0.1248008981347084,0.0,3.345966339111328,-1.8224716186523438,-0.19175104796886444,13.5,0.0,3.1986236572265625,-0.5968809127807617,-0.19175104796886444,22.5,0.0,3.2930374145507812,-0.6802082061767578,-0.19175104796886444,20.0,0.0,3.0777454376220703,0.020742416381835938,-0.19175104796886444,24.25,0.0,2.943277359008789,0.1938343048095703,-0.19175104796886444,15.25,0.0,3.0126571655273438,0.1348257064819336,-0.19175104796886444,23.5,0.0,3.3971071243286133,-1.0567903518676758,0.0,20.0,0.0,3.0995607376098633,-0.1723766326904297,0.0,29.5,0.0,2.9447078704833984,0.17559528350830078,0.0,19.75,0.0,3.0155181884765625,0.11301040649414062,0.0,27.25,,,,,,,,,,,,,,,,,,,,,,,,,,,,,,,,,,,
0.0,-7.383425071338934e-08,3.1570804119110107,-0.2515503466129303,3.577385143671563e-07,-0.007167881820350885,0.08243563771247864,5.239739380158426e-07,-0.05443309247493744,0.09235358238220215,0.0,3.3745765686035156,-0.5743503570556641,-0.19175104796886444,17.5,0.0,3.2254457473754883,-0.3769397735595703,-0.19175104796886444,19.25,0.0,3.5576820373535156,-0.49316883087158203,-0.19175104796886444,12.75,0.0,3.1142234802246094,-0.2084970474243164,-0.19175104796886444,21.0,0.0,3.045201301574707,-0.0286102294921875,-0.19175104796886444,17.75,0.0,3.3767223358154297,-1.1072158813476562,0.0,19.25,0.0,3.094911575317383,-0.1741647720336914,0.0,29.5,0.0,2.946138381958008,0.17023086547851562,0.0,20.5,0.0,3.006577491760254,0.12803077697753906,0.0,28.25,,,,,,,,,,,,,,,,,,,,,,,,,,,,,,,,,,,,,,,,
0.0,-2.9758329134210726e-08,3.133269786834717,-0.21545377373695374,4.159902005085314e-07,-0.06754636764526367,0.1376221626996994,5.27277961737127e-07,-0.12513484060764313,0.13226358592510223,0.0,3.0602216720581055,-1.2896060943603516,-0.3835020959377289,15.5,0.0,3.3141374588012695,-1.145482063293457,-0.3835020959377289,19.25,0.0,3.4589767456054688,-0.9634494781494141,-0.3835020959377289,15.5,0.0,2.968311309814453,0.017881393432617188,-0.19175104796886444,24.0,0.0,3.0062198638916016,-0.05364418029785156,-0.3835020959377289,22.25,0.0,2.9064416885375977,0.148773193359375,-0.19175104796886444,18.5,0.0,3.4110546112060547,-1.567840576171875,0.0,15.75,0.0,3.7511587142944336,-1.468062400817871,0.0,12.75,0.0,3.3087730407714844,-0.9069442749023438,0.0,27.5,0.0,3.2204389572143555,-0.6279945373535156,0.0,28.0,0.0,3.094911575317383,-0.21636486053466797,0.0,28.75,0.0,2.9271841049194336,0.20956993103027344,0.0,21.5,0.0,2.990126609802246,0.1519918441772461,0.0,27.75,,,,,,,,,,,,,,,,,,,,
0.0,9.262423716904777e-09,3.1107683181762695,-0.2677309215068817,4.6210371351662616e-07,-0.1268177032470703,0.04107038676738739,5.232887474448944e-07,-0.18964913487434387,0.04263130575418472,0.0,3.0280351638793945,-2.2852420806884766,-0.9587552398443222,12.0,0.0,3.328084945678711,-1.1483430862426758,-0.3835020959377289,13.25,0.0,3.1571388244628906,-0.8003711700439453,-0.3835020959377289,24.5,0.0,3.252267837524414,-0.9284019470214844,-0.3835020959377289,21.5,0.0,3.0351877212524414,-0.2510547637939453,-0.19175104796886444,26.75,0.0,2.953648567199707,0.03361701965332031,-0.19175104796886444,28.5,0.0,2.898573875427246,0.16415119171142578,-0.19175104796886444,24.0,0.0,3.3026933670043945,-0.9083747863769531,0.0,27.5,0.0,3.403186798095703,-0.9942054748535156,0.0,20.0,0.0,3.2111406326293945,-0.6712675094604492,0.0,28.75,0.0,2.994418144226074,0.09226799011230469,0.0,29.5,0.0,3.0755996704101562,-0.08547306060791016,0.0,29.5,0.0,2.9300451278686523,0.1723766326904297,0.0,23.0,,,,,,,,,,,,,,,,,,,,
0.0,4.0160930581123466e-08,3.071690797805786,-0.3846060037612915,4.918877039017389e-07,-0.23960959911346436,-0.15501375496387482,5.095608344163338e-07,-0.3277648687362671,-0.12038000673055649,0.0,3.3048391342163086,-1.2316703796386719,-0.3835020959377289,14.25,0.0,3.1270980834960938,-0.9609460830688477,-0.3835020959377289,23.5,0.0,3.22723388671875,-1.087188720703125,-0.3835020959377289,20.75,0.0,2.938985824584961,-0.33402442932128906,-1.1505062878131866,27.25,0.0,3.0241012573242188,-0.4076957702636719,-0.3835020959377289,25.5,0.0,2.8846263885498047,-0.20420551300048828,-0.5752531439065933,22.5,0.0,2.9976367950439453,-0.013589859008789062,0.0,30.5,0.0,2.9271841049194336,0.10013580322265625,0.0,24.25,,,,,,,,,,,,,,,,,,,,,,,,,,,,,,,,,,,,,,,,,,,,,
0.0,6.73169182618949e-08,2.9876484870910645,-0.4111182689666748,5.112871690471366e-07,-0.425350546836853,-0.17438116669654846,4.900962267129216e-07,-0.5329475402832031,-0.11553016304969788,0.0,3.0870437622070312,-1.5288591384887695,-0.19175104796886444,17.0,0.0,3.176093101501465,-1.6826391220092773,-0.19175104796886444,15.25,0.0,3.32486629486084,-1.741647720336914,-0.19175104796886444,12.25,0.0,3.074526786804199,-1.2034177780151367,-0.7670041918754578,20.0,0.0,2.962946891784668,-0.7746219635009766,-0.9587552398443222,19.25,0.0,2.7447938919067383,-0.16736984252929688,-0.9587552398443222,19.75,0.0,2.7780532836914062,-0.22029876708984375,-0.9587552398443222,26.25,0.0,2.822399139404297,-0.2617835998535156,-0.9587552398443222,24.0,0.0,3.0655860900878906,-0.20241737365722656,0.0,30.0,0.0,2.8864145278930664,-0.017523765563964844,0.0,25.25,0.0,2.9768943786621094,-0.027179718017578125,0.0,29.75,,,,,,,,,,,,,,,,,,,,,,,,,,,,,,
0.0,8.80222046362178e-08,2.938380241394043,-0.4917648434638977,5.201985118219454e-07,-0.5027252435684204,-0.2922084927558899,4.6585103063989663e-07,-0.5716128349304199,-0.20345205068588257,0.0,3.032684326171875,-1.238107681274414,-0.5752531439065933,20.75,0.0,3.1270980834960938,-1.3214349746704102,-0.5752531439065933,15.5,0.0,2.970099449157715,-1.1043548583984375,-0.7670041918754578,20.0,0.0,2.8699636459350586,-0.5729198455810547,-0.19175104796886444,16.25,0.0,2.722620964050293,-0.11408329010009766,-0.5752531439065933,19.25,0.0,2.656102180480957,0.1659393310546875,-0.5752531439065933,18.0,0.0,2.8678178787231445,0.030755996704101562,0.0,25.75,,,,,,,,,,,,,,,,,,,,,,,,,,,,,,,,,,,,,,,,,,,,,,,,,,
0.0,1.090196235509211e-07,2.873581647872925,-0.5643367767333984,5.25178506904922e-07,-0.6019043922424316,-0.38149672746658325,4.403385673867888e-07,-0.6339483261108398,-0.25723797082901,0.0,2.9761791229248047,-1.1762380599975586,-0.7670041918754578,19.25,0.0,2.9633045196533203,-1.0056495666503906,-0.7670041918754578,22.5,0.0,2.893209457397461,-0.8107423782348633,-0.7670041918754578,18.75,0.0,2.732992172241211,-0.3790855407714844,-0.5752531439065933,16.0,0.0,2.6149749755859375,-0.1323223114013672,-0.5752531439065933,17.0,0.0,3.243684768676758,-1.049637794494629,0.0,21.0,0.0,3.061652183532715,-0.4119873046875,0.0,29.0,0.0,2.967953681945801,-0.1341104507446289,0.0,28.5,0.0,2.736210823059082,0.02181529998779297,0.0,18.75,,,,,,,,,,,,,,,,,,,,,,,,,,,,,,,,,,,,,,,,
0.0,1.1131053412327674e-07,2.7716050148010254,-0.7047647833824158,5.014156272409309e-07,-0.8078781366348267,-0.5611165761947632,3.9779507687853766e-07,-0.8485887050628662,-0.3663817048072815,0.0,2.937197685241699,-1.638650894165039,-1.72575943171978,15.5,0.0,2.710103988647461,-1.262068748474121,-0.9587552398443222,22.25,0.0,2.8406381607055664,-1.3053417205810547,-1.72575943171978,23.25,0.0,2.893209457397461,-1.4487504959106445,-1.72575943171978,19.75,0.0,2.6836395263671875,-0.6147623062133789,-0.3835020959377289,19.5,0.0,2.510190010070801,-0.2950429916381836,-0.5752531439065933,16.5,0.0,2.567410469055176,-0.3483295440673828,-0.5752531439065933,20.5,0.0,3.045201301574707,-0.6612539291381836,0.0,28.75,,,,,,,,,,,,,,,,,,,,,,,,,,,,,,,,,,,,,,,,,,,,,
0.0,1.1807938449237554e-07,2.6435601711273193,-0.8353037238121033,4.815746024178225e-07,-1.0310699939727783,-0.697376012802124,3.5998075986753975e-07,-1.0496594905853271,-0.4250307083129883,0.0,1.7069578170776367,-1.476287841796875,-0.19175104796886444,16.75,0.0,2.454400062561035,-1.4355182647705078,-1.342257335782051,23.75,0.0,2.5370121002197266,-1.4480352401733398,-1.342257335782051,24.75,0.0,2.620697021484375,-1.4902353286743164,-1.342257335782051,19.25,0.0,2.765536308288574,-1.5968084335327148,-2.3010125756263733,15.25,0.0,2.535581588745117,-0.42378902435302734,-0.7670041918754578,21.5,0.0,2.4629831314086914,-0.38051605224609375,-0.7670041918754578,19.5,0.0,3.1610727310180664,-1.2198686599731445,0.0,20.25,0.0,3.3327341079711914,-1.201629638671875,0.0,16.25,,,,,,,,,,,,,,,,,,,,,,,,,,,,,,,,,,,,,,,,
0.0,1.1066509841839434e-07,2.4910082817077637,-0.9966694116592407,4.413681722326146e-07,-1.2859718799591064,-0.8567980527877808,3.1131864375311125e-07,-1.2709470987319946,-0.4873781204223633,0.0,2.408266067504883,-1.3782978057861328,-1.72575943171978,26.5,0.0,2.47800350189209,-1.3918876647949219,-1.342257335782051,22.0,0.0,2.6092529296875,-1.4634132385253906,-1.9175104796886444,15.25,0.0,2.0606517791748047,-0.985264778137207,-1.5340083837509155,16.25,0.0,2.377152442932129,-1.1715888977050781,-1.72575943171978,22.75,0.0,2.910017967224121,-1.4584064483642578,0.19175104796886444,12.75,0.0,3.1142234802246094,-1.4780759811401367,0.19175104796886444,13.0,0.0,2.3081302642822266,-0.8332729339599609,-1.5340083837509155,19.25,,,,,,,,,,,,,,,,,,,,,,,,,,,,,,,,,,,,,,,,,,,,,
0.0,1.19903234008234e-07,2.330017328262329,-1.077640414237976,4.233511674556212e-07,-1.492552399635315,-0.864244282245636,2.7960521720160614e-07,-1.3892645835876465,-0.4245792329311371,0.0,2.2623538970947266,-1.2674331665039062,-1.5340083837509155,20.75,0.0,2.0581483840942383,-0.9409189224243164,-1.5340083837509155,19.0,0.0,2.155423164367676,-1.051783561706543,-1.5340083837509155,19.5,0.0,2.410769462585449,-1.3003349304199219,-1.5340083837509155,21.5,0.0,2.5169849395751953,-1.3318061828613281,-0.9587552398443222,16.25,0.0,1.7212629318237305,-1.4787912368774414,0.0,23.25,0.0,1.862168312072754,-1.4365911483764648,0.0,23.5,,,,,,,,,,,,,,,,,,,,,,,,,,,,,,,,,,,,,,,,,,,,,,,,,,
0.0,1.3193690051593876e-07,2.194516897201538,-1.165464997291565,4.0997076666826615e-07,-1.5715558528900146,-0.9278516173362732,2.537563261739706e-07,-1.302518606185913,-0.46446821093559265,0.0,2.048492431640625,-1.136183738708496,-0.3835020959377289,21.0,0.0,2.364635467529297,-1.1136531829833984,-0.5752531439065933,20.25,0.0,2.2269487380981445,-0.9938478469848633,-0.7670041918754578,26.5,0.0,2.28273868560791,-1.006007194519043,-0.5752531439065933,26.0,0.0,1.7523765563964844,-1.4548301696777344,0.0,25.75,0.0,1.9805431365966797,-1.3221502304077148,0.0,27.0,,,,,,,,,,,,,,,,,,,,,,,,,,,,,,,,,,,,,,,,,,,,,,,,,,,,,,,
0.0,-3.4071440779825934e-08,3.213616132736206,0.26121699810028076,-7.143890456973168e-08,-0.34837162494659424,0.9949350357055664,-3.712836260660879e-08,-0.7624757885932922,0.25331956148147583,0.0,3.168940544128418,-1.6568899154663086,-0.19175104796886444,17.75,0.0,3.230452537536621,-1.2685060501098633,-0.19175104796886444,19.5,0.0,3.2172203063964844,-0.44739246368408203,-0.19175104796886444,19.0,0.0,3.152132034301758,-0.05435943603515625,-0.19175104796886444,20.0,0.0,3.0770301818847656,0.2510547637939453,-0.19175104796886444,14.5,0.0,3.313422203063965,-0.994563102722168,0.0,24.25,0.0,3.1821727752685547,0.006079673767089844,0.0,28.25,,,,,,,,,,,,,,,,,,,,,,,,,,,,,,,,,,,,,,,,,,,,,,,,,,
0.0,-3.604782961019737e-08,3.171827554702759,0.31884095072746277,-6.904679850094908e-08,-0.41792094707489014,0.9550719857215881,-3.3561949663862833e-08,-0.7463338971138,0.20270556211471558,0.0,3.179311752319336,-1.216292381286621,-0.19175104796886444,20.75,0.0,3.310561180114746,-0.8944272994995117,-0.19175104796886444,23.0,0.0,3.4453868865966797,-0.7159709930419922,-0.19175104796886444,13.0,0.0,3.0094385147094727,0.052928924560546875,-0.19175104796886444,17.25,0.0,3.064870834350586,0.10514259338378906,-0.19175104796886444,17.5,0.0,3.3180713653564453,-0.8997917175292969,0.0,24.0,0.0,3.1135082244873047,0.036835670471191406,0.0,31.75,0.0,3.1861066818237305,0.03719329833984375,0.0,28.0,0.0,2.9840469360351562,0.1741647720336914,0.0,15.0,0.0,3.079533576965332,0.1087188720703125,0.0,27.5,,,,,,,,,,,,,,,,,,,,,,,,,,,,,,,,,,,
0.0,-3.4505646340221574e-08,3.127511501312256,0.3640163838863373,-6.269083030474576e-08,-0.4705827236175537,0.9013150334358215,-2.795429843160946e-08,-0.7079455852508545,0.14811450242996216,0.0,3.2007694244384766,-0.6251335144042969,-0.19175104796886444,22.75,0.0,3.2726526260375977,-0.6473064422607422,-0.19175104796886444,20.25,0.0,3.0852556228637695,0.06937980651855469,-0.19175104796886444,24.25,0.0,3.0115842819213867,0.2453327178955078,-0.19175104796886444,23.25,0.0,2.9354095458984375,0.29754638671875,-0.19175104796886444,14.25,0.0,3.2862424850463867,-1.0306835174560547,0.0,23.5,0.0,3.3981800079345703,-1.1883974075317383,0.0,19.25,0.0,3.1135082244873047,0.04076957702636719,0.0,31.75,0.0,3.176093101501465,0.057578086853027344,0.0,27.75,0.0,3.076314926147461,0.102996826171875,0.0,27.5,,,,,,,,,,,,,,,,,,,,,,,,,,,,,,,,,,,
0.0,-3.0653957594495296e-08,3.11977219581604,0.29778003692626953,-5.408085002045482e-08,-0.4418095350265503,0.6913371086120605,-2.144149391369865e-08,-0.590069055557251,-0.018584594130516052,0.0,3.4307241439819336,-0.8372068405151367,-0.3835020959377289,18.75,0.0,3.414273262023926,-0.6326436996459961,-0.3835020959377289,25.25,0.0,3.2851696014404297,-0.46133995056152344,-0.19175104796886444,21.5,0.0,2.9572248458862305,0.09334087371826172,-0.19175104796886444,15.0,0.0,3.01516056060791,0.06115436553955078,-0.19175104796886444,24.25,0.0,3.059506416320801,0.1366138458251953,-0.19175104796886444,24.0,0.0,3.3388137817382812,-1.2956857681274414,0.0,21.25,0.0,3.302335739135742,-0.9369850158691406,0.0,26.25,0.0,3.105640411376953,0.06580352783203125,0.0,31.0,0.0,3.205418586730957,-0.09512901306152344,0.0,28.0,0.0,3.0552148818969727,0.13589859008789062,0.0,28.25,,,,,,,,,,,,,,,,,,,,,,,,,,,,,,
0.0,-2.7369523536435736e-08,3.0937600135803223,0.23231656849384308,-4.6423899391356827e-08,-0.44943884015083313,0.4909270703792572,-1.5825502686084292e-08,-0.5300390124320984,-0.17054326832294464,0.0,3.242969512939453,-1.430511474609375,-0.3835020959377289,16.75,0.0,3.257632255554199,-1.0925531387329102,-0.3835020959377289,21.25,0.0,3.177165985107422,-0.47457218170166016,-0.3835020959377289,22.25,0.0,2.9969215393066406,0.06580352783203125,-0.19175104796886444,27.25,0.0,3.0487775802612305,-0.006794929504394531,-0.5752531439065933,26.75,0.0,2.9418468475341797,0.10442733764648438,-0.19175104796886444,20.0,0.0,3.326296806335449,-1.3267993927001953,0.0,20.0,0.0,3.5043954849243164,-1.2742280960083008,0.0,14.5,0.0,3.2100677490234375,-0.11301040649414062,0.0,27.25,0.0,3.084897994995117,0.06794929504394531,0.0,31.5,,,,,,,,,,,,,,,,,,,,,,,,,,,,,,,,,,,
0.0,-2.5961732319501607e-08,3.049527883529663,0.1789458692073822,-4.11478815465216e-08,-0.4905664324760437,0.3190736174583435,-1.1871179594891146e-08,-0.5170950293540955,-0.29256272315979004,0.0,2.978682518005371,-1.5735626220703125,-0.5752531439065933,17.75,0.0,3.338456153869629,-1.6150474548339844,-0.3835020959377289,14.5,0.0,3.2329559326171875,-1.3911724090576172,-0.5752531439065933,22.25,0.0,3.2848119735717773,-1.4258623123168945,-0.3835020959377289,19.5,0.0,2.970457077026367,-0.2346038818359375,-0.3835020959377289,23.0,0.0,3.0226707458496094,-0.17952919006347656,-0.3835020959377289,22.0,0.0,2.91287899017334,0.037550926208496094,-0.7670041918754578,17.5,0.0,3.3026933670043945,-1.3768672943115234,0.0,19.75,0.0,3.4303665161132812,-1.4537572860717773,0.0,15.5,0.0,3.2111406326293945,-0.1544952392578125,0.0,27.0,0.0,3.0291080474853516,0.08118152618408203,0.0,29.25,0.0,3.085613250732422,0.041484832763671875,0.0,31.0,0.0,2.9511451721191406,0.15056133270263672,0.0,21.25,,,,,,,,,,,,,,,,,,,,
0.0,-2.4062284609271956e-08,2.9898436069488525,0.11030583083629608,-3.5488998406663086e-08,-0.5679410099983215,0.13465844094753265,-7.887107855708564e-09,-0.558437705039978,-0.4183276295661926,0.0,3.105282783508301,-1.273512840270996,-0.5752531439065933,22.0,0.0,3.1707286834716797,-1.3042688369750977,-0.5752531439065933,20.75,0.0,3.301262855529785,-1.294255256652832,-0.19175104796886444,15.25,0.0,3.076314926147461,-0.6133317947387695,-0.3835020959377289,16.25,0.0,2.830624580383301,0.008940696716308594,-0.9587552398443222,17.75,0.0,2.8982162475585938,-0.010371208190917969,-0.9587552398443222,18.25,0.0,3.280520439147949,-1.0639429092407227,0.0,25.75,0.0,3.0072927474975586,0.11909008026123047,0.0,29.25,0.0,3.0655860900878906,0.10943412780761719,0.0,30.0,,,,,,,,,,,,,,,,,,,,,,,,,,,,,,,,,,,,,,,,
0.0,-1.9186551014627184e-08,2.9312984943389893,-0.04024522006511688,-2.6718868895159176e-08,-0.6518486142158508,-0.15915125608444214,-2.3100259483044283e-09,-0.6202471256256104,-0.621427059173584,0.0,3.155350685119629,-1.0936260223388672,-0.7670041918754578,17.5,0.0,3.0591487884521484,-0.743865966796875,-0.7670041918754578,24.25,0.0,3.1321048736572266,-0.8450746536254883,-0.7670041918754578,24.5,0.0,2.7333498001098633,-0.016808509826660156,-0.9587552398443222,21.75,0.0,2.7701854705810547,-0.009298324584960938,-0.9587552398443222,26.75,0.0,2.864956855773926,-0.03933906555175781,-0.9587552398443222,24.25,0.0,3.2930374145507812,-1.2956857681274414,0.0,17.25,0.0,3.4325122833251953,-1.4333724975585938,0.0,12.75,0.0,3.2848119735717773,-0.98419189453125,0.0,22.5,0.0,2.753019332885742,0.020384788513183594,0.0,20.5,0.0,2.844572067260742,0.06115436553955078,0.0,27.25,0.0,2.9407739639282227,0.0743865966796875,0.0,29.5,0.0,3.0455589294433594,0.020384788513183594,0.0,28.25,,,,,,,,,,,,,,,,,,,,
0.0,-1.6587062390271967e-08,2.8715269565582275,-0.09851609170436859,-2.0967828362472574e-08,-0.6918742656707764,-0.28378716111183167,1.1659082588266756e-09,-0.592595100402832,-0.6720102429389954,0.0,3.023386001586914,-1.2502670288085938,-0.3835020959377289,23.25,0.0,3.1135082244873047,-1.3250112533569336,-0.5752531439065933,19.0,0.0,3.276944160461426,-1.3339519500732422,-0.5752531439065933,13.5,0.0,3.0198097229003906,-0.9570121765136719,-0.3835020959377289,24.0,0.0,2.696514129638672,0.0010728836059570312,-0.5752531439065933,21.25,0.0,2.8760433197021484,0.07259845733642578,-0.7670041918754578,19.0,0.0,2.7201175689697266,0.1316070556640625,-0.7670041918754578,23.75,0.0,3.4428834915161133,-1.4491081237792969,0.0,13.25,0.0,2.7469396591186523,0.07295608520507812,0.0,21.0,0.0,2.8384923934936523,0.08404254913330078,0.0,27.75,0.0,2.9250383377075195,0.09906291961669922,0.0,29.75,,,,,,,,,,,,,,,,,,,,,,,,,,,,,,
0.0,-1.4206906762126437e-08,2.799356698989868,-0.22852107882499695,-1.5742205761171135e-08,-0.7206168174743652,-0.515165388584137,4.149992793855972e-09,-0.5377650260925293,-0.8086933493614197,0.0,2.874612808227539,-1.3900995254516602,-0.7670041918754578,25.75,0.0,2.948284149169922,-1.370072364807129,-0.7670041918754578,23.5,0.0,3.0219554901123047,-1.4244318008422852,-1.1505062878131866,19.0,0.0,2.8105974197387695,-0.8268356323242188,-0.7670041918754578,18.75,0.0,2.5702714920043945,-0.2878904342651367,-0.3835020959377289,16.0,0.0,2.625703811645508,-0.3064870834350586,-0.3835020959377289,24.25,0.0,2.6586055755615234,-0.35583972930908203,-0.3835020959377289,24.0,0.0,3.4099817276000977,-1.5152692794799805,0.0,13.0,0.0,2.813100814819336,0.04506111145019531,0.0,28.0,,,,,,,,,,,,,,,,,,,,,,,,,,,,,,,,,,,,,,,,
0.0,-1.1438624269999309e-08,2.766162633895874,-0.48472869396209717,-1.0304103348346416e-08,-0.7144414782524109,-0.9235066771507263,7.1374666177348445e-09,-0.488262414932251,-1.0783815383911133,0.0,2.84421443939209,-1.796722412109375,0.19175104796886444,15.5,0.0,2.9522180557250977,-1.3436079025268555,0.19175104796886444,20.25,0.0,2.912163734436035,-1.0761022567749023,-1.1505062878131866,22.5,0.0,2.6210546493530273,-0.6455183029174805,-0.19175104796886444,18.75,0.0,2.8263330459594727,-0.7302761077880859,-1.1505062878131866,22.5,0.0,2.7261972427368164,-0.5818605422973633,-0.19175104796886444,23.0,0.0,3.1925439834594727,-1.9251108169555664,0.0,12.5,0.0,2.568840980529785,-0.3247261047363281,0.0,14.0,0.0,2.7104616165161133,-0.09834766387939453,0.0,23.75,0.0,2.813100814819336,-0.047206878662109375,0.0,28.5,,,,,,,,,,,,,,,,,,,,,,,,,,,,,,,,,,,
0.0,-8.790056682528302e-09,2.645207643508911,-0.7022714614868164,-5.195774477328996e-09,-0.961736798286438,-1.178882360458374,9.877059170548819e-09,-0.7961694598197937,-1.1662216186523438,0.0,1.752018928527832,-1.3707876205444336,-0.19175104796886444,13.75,0.0,2.6732683181762695,-1.2284517288208008,-1.5340083837509155,26.0,0.0,2.71761417388916,-1.2860298156738281,-1.5340083837509155,20.25,0.0,2.8760433197021484,-1.3436079025268555,-1.5340083837509155,14.5,0.0,2.6421546936035156,-1.1004209518432617,-1.5340083837509155,23.0,0.0,2.3081302642822266,-0.8507966995239258,-0.5752531439065933,13.75,0.0,2.584218978881836,-0.6691217422485352,-0.5752531439065933,17.0,0.0,3.1735897064208984,-1.2059211730957031,0.0,17.75,0.0,3.3420324325561523,-1.2205839157104492,0.0,13.0,0.0,2.6940107345581055,-0.18453598022460938,0.0,24.25,0.0,2.7941465377807617,-0.14519691467285156,0.0,28.5,0.0,2.8803348541259766,-0.2696514129638672,0.0,28.0,,,,,,,,,,,,,,,,,,,,,,,,,
0.0,-6.6310765767241264e-09,2.5028562545776367,-0.9118953943252563,-9.978935455734472e-10,-1.1386940479278564,-1.4283961057662964,1.186630882443751e-08,-0.9181454181671143,-1.2674905061721802,0.0,1.8732547760009766,-1.237034797668457,-0.19175104796886444,19.0,0.0,2.579212188720703,-1.4415979385375977,-0.7670041918754578,14.0,0.0,2.465486526489258,-1.226663589477539,-0.7670041918754578,27.75,0.0,2.510190010070801,-1.2788772583007812,-0.7670041918754578,21.75,0.0,2.461552619934082,-0.9330511093139648,-0.7670041918754578,25.0,0.0,2.378225326538086,-0.6673336029052734,-1.1505062878131866,21.75,0.0,3.132462501525879,-1.302480697631836,0.0,17.5,0.0,3.2930374145507812,-1.3461112976074219,0.0,12.75,0.0,2.6775598526000977,-0.18525123596191406,0.0,24.25,,,,,,,,,,,,,,,,,,,,,,,,,,,,,,,,,,,,,,,,
0.0,-5.0544759488957425e-09,2.3604321479797363,-1.0872857570648193,2.213118577287787e-09,-1.2786754369735718,-1.5951520204544067,1.3134066279008039e-08,-0.9737622141838074,-1.2966177463531494,0.0,2.2519826889038086,-1.2456178665161133,0.19175104796886444,24.0,0.0,2.358555793762207,-1.3300180435180664,-0.9587552398443222,23.5,0.0,2.467632293701172,-1.3800859451293945,-0.9587552398443222,17.25,0.0,2.2001266479492188,-0.9995698928833008,-1.342257335782051,23.25,0.0,2.1071434020996094,-0.9316205978393555,0.19175104796886444,20.5,0.0,1.842498779296875,-1.4641284942626953,0.0,21.75,0.0,3.151059150695801,-1.214146614074707,0.0,17.25,0.0,2.672910690307617,-0.2510547637939453,0.0,24.25,,,,,,,,,,,,,,,,,,,,,,,,,,,,,,,,,,,,,,,,,,,,,
0.0,-3.6460154895223695e-09,2.231349468231201,-1.1028048992156982,4.9886521580333465e-09,-1.4410313367843628,-1.356090784072876,1.4078159971120385e-08,-1.1202874183654785,-0.900581419467926,0.0,2.3725032806396484,-1.4605522155761719,-1.72575943171978,13.0,0.0,2.384662628173828,-1.152634620666504,-1.72575943171978,20.25,0.0,2.022385597229004,-0.9112358093261719,-0.7670041918754578,19.75,0.0,2.24912166595459,-0.9630918502807617,-1.72575943171978,21.75,0.0,2.3714303970336914,-1.0085105895996094,-1.72575943171978,25.25,0.0,2.0813941955566406,-1.1973381042480469,0.0,24.5,0.0,2.891421318054199,-1.0178089141845703,0.0,16.5,0.0,2.53450870513916,-0.7002353668212891,0.0,26.75,,,,,,,,,,,,,,,,,,,,,,,,,,,,,,,,,,,,,,,,,,,,,
0.0,-2.4183754998574614e-09,2.100968360900879,-1.1855762004852295,7.261231171895588e-09,-1.5237658023834229,-1.328747034072876,1.4625015865021851e-08,-1.1014004945755005,-0.7867152690887451,0.0,2.01416015625,-1.0453462600708008,-0.5752531439065933,22.0,0.0,2.1200180053710938,-1.015305519104004,-0.9587552398443222,23.5,0.0,2.2323131561279297,-1.0489225387573242,-0.9587552398443222,19.25,0.0,2.358555793762207,-1.2534856796264648,-0.9587552398443222,13.25,0.0,2.0449161529541016,-1.2470483779907227,0.0,25.0,0.0,2.968311309814453,-1.2996196746826172,0.0,14.75,0.0,3.0906200408935547,-1.3979673385620117,0.0,13.5,0.0,2.4715662002563477,-0.8579492568969727,0.0,26.5,,,,,,,,,,,,,,,,,,,,,,,,,,,,,,,,,,,,,,,,,,,,,
0.0,-4.0944903023643064e-10,3.1200084686279297,0.019324734807014465,6.941307528762763e-10,-0.04711069166660309,-0.4011627733707428,3.877506926652785e-10,-0.07905128598213196,-0.30825477838516235,0.0,2.9321908950805664,0.18846988677978516,-0.19175104796886444,13.5,0.0,2.991199493408203,0.21350383758544922,-0.19175104796886444,21.25,0.0,3.0323266983032227,0.16415119171142578,-0.19175104796886444,21.0,0.0,3.166794776916504,0.125885009765625,-0.19175104796886444,14.5,,,,,,,,,,,,,,,,,,,,,,,,,,,,,,,,,,,,,,,,,,,,,,,,,,,,,,,,,,,,,,,,,
0.0,-2.917747432551465e-10,3.1041066646575928,-0.065889872610569,7.852442585054575e-10,-0.07729583978652954,-0.5042394399642944,4.188476510069705e-10,-0.11004219204187393,-0.369807630777359,0.0,3.1936168670654297,-1.1265277862548828,-0.19175104796886444,18.25,0.0,3.166794776916504,-0.7939338684082031,-0.19175104796886444,21.0,0.0,2.88999080657959,-0.15306472778320312,-0.19175104796886444,20.25,0.0,2.9457807540893555,-0.10764598846435547,-0.19175104796886444,23.75,0.0,3.0466318130493164,-0.1920461654663086,-0.19175104796886444,22.0,,,,,,,,,,,,,,,,,,,,,,,,,,,,,,,,,,,,,,,,,,,,,,,,,,,,,,,,,,,,
0.0,-1.7368072258161504e-10,3.0938613414764404,-0.19489166140556335,8.724528877124271e-10,-0.14195847511291504,-0.6691612005233765,4.473899029022732e-10,-0.21392709016799927,-0.4798329770565033,0.0,3.334164619445801,-1.0035037994384766,-0.19175104796886444,18.75,0.0,3.369569778442383,-1.169443130493164,-0.3835020959377289,16.5,0.0,3.22723388671875,-0.8651018142700195,-0.19175104796886444,18.5,0.0,2.85494327545166,-0.02396106719970703,-0.7670041918754578,19.75,0.0,2.90679931640625,0.024318695068359375,-0.3835020959377289,21.5,0.0,3.0466318130493164,-0.051140785217285156,-0.19175104796886444,17.75,0.0,3.415703773498535,-1.5070438385009766,0.0,14.5,,,,,,,,,,,,,,,,,,,,,,,,,,,,,,,,,,,,,,,,,,,,,,,,,,
0.0,-7.049101580225425e-11,3.0541059970855713,-0.20890171825885773,9.330146655273097e-10,-0.22247324883937836,-0.605996310710907,4.56658044711844e-10,-0.2954152822494507,-0.37650519609451294,0.0,3.2247304916381836,-1.4122724533081055,-0.19175104796886444,18.25,0.0,3.2755136489868164,-1.451253890991211,-0.19175104796886444,18.0,0.0,3.1807422637939453,-1.0045766830444336,0.19175104796886444,15.75,0.0,2.7658939361572266,-0.035762786865234375,-0.3835020959377289,13.0,0.0,3.0083656311035156,0.03540515899658203,-0.5752531439065933,21.25,0.0,2.8574466705322266,0.102996826171875,-0.3835020959377289,22.25,0.0,2.9071569442749023,0.14770030975341797,-0.5752531439065933,24.25,0.0,3.4110546112060547,-1.4809370040893555,0.0,15.0,0.0,3.2862424850463867,-1.1333227157592773,0.0,25.75,,,,,,,,,,,,,,,,,,,,,,,,,,,,,,,,,,,,,,,,
0.0,9.907515780005482e-12,3.0161454677581787,-0.32202383875846863,9.583603910456873e-10,-0.3486994206905365,-0.7218161225318909,4.4373812957410053e-10,-0.46366798877716064,-0.4381900429725647,0.0,3.1703710556030273,-1.2867450714111328,-0.3835020959377289,21.5,0.0,3.2501220703125,-1.3768672943115234,-0.5752531439065933,16.75,0.0,3.1517744064331055,-1.1004209518432617,-0.5752531439065933,24.0,0.0,3.0902624130249023,-0.7070302963256836,-0.19175104796886444,20.25,0.0,2.731204032897949,0.06008148193359375,-0.7670041918754578,16.25,0.0,2.79843807220459,0.22530555725097656,-0.7670041918754578,22.75,0.0,2.8624534606933594,0.16951560974121094,-0.7670041918754578,22.5,,,,,,,,,,,,,,,,,,,,,,,,,,,,,,,,,,,,,,,,,,,,,,,,,,
0.0,7.445886962553772e-11,2.973573684692383,-0.4262610375881195,9.580897186722837e-10,-0.466828316450119,-0.8037540912628174,4.1498157687946957e-10,-0.5944506525993347,-0.4617540240287781,0.0,3.1807422637939453,-1.5170574188232422,-0.3835020959377289,16.25,0.0,3.1696557998657227,-1.2981891632080078,-0.5752531439065933,20.5,0.0,3.185391426086426,-1.050710678100586,-0.5752531439065933,22.25,0.0,3.141045570373535,-0.6380081176757812,-0.3835020959377289,17.25,0.0,2.6761293411254883,0.026106834411621094,-0.7670041918754578,18.0,0.0,2.720475196838379,0.0947713851928711,-0.7670041918754578,19.75,0.0,2.862095832824707,0.16629695892333984,-0.7670041918754578,15.75,,,,,,,,,,,,,,,,,,,,,,,,,,,,,,,,,,,,,,,,,,,,,,,,,,
0.0,1.210399280804353e-10,2.9075891971588135,-0.5961251854896545,9.293656955122742e-10,-0.637566089630127,-0.9856467247009277,3.6940611680691404e-10,-0.7853721380233765,-0.562616229057312,0.0,3.177165985107422,-1.542806625366211,-0.3835020959377289,13.25,0.0,2.788066864013672,-1.0671615600585938,-0.3835020959377289,16.25,0.0,2.9550790786743164,-1.2649297714233398,-0.9587552398443222,20.75,0.0,3.039121627807617,-1.3228654861450195,-0.9587552398443222,24.25,0.0,3.0809640884399414,-1.3840198516845703,-0.9587552398443222,19.25,0.0,2.7065277099609375,-0.21064281463623047,-0.7670041918754578,17.25,0.0,2.626776695251465,0.2181529998779297,-0.7670041918754578,16.75,0.0,2.9164552688598633,0.06723403930664062,0.0,26.5,0.0,3.0423402786254883,0.06437301635742188,0.0,24.75,,,,,,,,,,,,,,,,,,,,,,,,,,,,,,,,,,,,,,,,
0.0,1.564315621482848e-10,2.8243632316589355,-0.7229443192481995,8.842362952954375e-10,-0.7914890050888062,-1.0662733316421509,3.158583672391302e-10,-0.9102742075920105,-0.5666253566741943,0.0,2.9300451278686523,-1.3332366943359375,-1.1505062878131866,23.25,0.0,2.8542280197143555,-1.1014938354492188,-0.9587552398443222,19.5,0.0,2.9039382934570312,-1.2649297714233398,-0.9587552398443222,25.5,0.0,3.0519962310791016,-1.3450384140014648,-0.5752531439065933,15.5,0.0,2.5262832641601562,-0.24211406707763672,-0.3835020959377289,13.75,0.0,2.5752782821655273,-0.24890899658203125,-0.3835020959377289,18.5,0.0,2.7093887329101562,-0.33724308013916016,-0.3835020959377289,16.0,0.0,3.014087677001953,-0.9709596633911133,0.0,23.0,0.0,2.5742053985595703,-0.13840198516845703,0.0,12.25,0.0,2.876400947570801,0.09262561798095703,0.0,24.25,,,,,,,,,,,,,,,,,,,,,,,,,,,,,,,,,,,
0.0,1.788279663239578e-10,2.723029375076294,-0.840100109577179,8.213361102349381e-10,-0.9557057023048401,-1.1123201847076416,2.539898846798394e-10,-1.0298219919204712,-0.5367320775985718,0.0,3.0008554458618164,-1.6243457794189453,0.19175104796886444,13.5,0.0,2.7211904525756836,-1.4466047286987305,-1.5340083837509155,18.75,0.0,2.895355224609375,-1.4598369598388672,0.19175104796886444,14.5,0.0,2.6797056198120117,-1.1959075927734375,-1.5340083837509155,20.5,0.0,2.470850944519043,-0.45311450958251953,-0.5752531439065933,17.75,0.0,2.651810646057129,-0.5811452865600586,-0.9587552398443222,19.5,0.0,2.5502443313598633,-0.39517879486083984,-0.9587552398443222,21.0,0.0,3.492593765258789,-1.2763738632202148,0.0,13.5,0.0,2.5641918182373047,-0.12230873107910156,0.0,15.75,0.0,2.6682615280151367,-0.047206878662109375,0.0,22.75,,,,,,,,,,,,,,,,,,,,,,,,,,,,,,,,,,,
0.0,1.9680346241557345e-10,2.5780739784240723,-0.9913076162338257,7.542544921967931e-10,-1.158929705619812,-1.214345097541809,1.9349730151496658e-10,-1.161695122718811,-0.5604301691055298,0.0,1.7244815826416016,-1.3875961303710938,-0.19175104796886444,20.25,0.0,2.5899410247802734,-1.2052059173583984,-1.1505062878131866,23.25,0.0,2.648591995239258,-1.358628273010254,-2.684514671564102,16.0,0.0,2.5634765625,-1.1165142059326172,-1.1505062878131866,27.0,0.0,2.333521842956543,-0.7052421569824219,-0.5752531439065933,18.0,0.0,2.5069713592529297,-0.9176731109619141,-1.1505062878131866,22.0,0.0,3.5033226013183594,-1.2298822402954102,0.0,12.75,,,,,,,,,,,,,,,,,,,,,,,,,,,,,,,,,,,,,,,,,,,,,,,,,,
0.0,1.9818724439346624e-10,2.386164903640747,-1.1505008935928345,6.653871897910335e-10,-1.4665501117706299,-1.2730964422225952,1.2172751695516126e-10,-1.4345948696136475,-0.5062441229820251,0.0,1.8106698989868164,-1.3564825057983398,-0.19175104796886444,19.5,0.0,2.046346664428711,-1.3153553009033203,-1.72575943171978,21.25,0.0,2.373218536376953,-1.5535354614257812,-2.684514671564102,16.5,0.0,2.241969108581543,-1.3132095336914062,-1.72575943171978,24.0,0.0,2.307415008544922,-1.4126300811767578,-2.684514671564102,23.25,0.0,2.5763511657714844,-1.589655876159668,-2.684514671564102,12.75,0.0,1.7834901809692383,-1.4702081680297852,0.0,21.0,0.0,3.19826602935791,-1.260995864868164,0.0,20.25,0.0,3.26693058013916,-1.3926029205322266,0.0,17.75,0.0,2.6450157165527344,-0.11587142944335938,0.0,23.5,,,,,,,,,,,,,,,,,,,,,,,,,,,,,,,,,,,
0.0,2.0276569312471793e-10,2.2268404960632324,-1.239374041557312,5.905881894641141e-10,-1.6068402528762817,-1.2557814121246338,6.543098007849579e-11,-1.4259819984436035,-0.4506829082965851,0.0,1.8568038940429688,-1.143336296081543,-0.19175104796886444,12.75,0.0,1.9730329513549805,-1.1186599731445312,-0.19175104796886444,26.25,0.0,2.121448516845703,-1.0567903518676758,-0.7670041918754578,27.25,0.0,2.235531806945801,-1.0753870010375977,-0.7670041918754578,25.5,0.0,2.3746490478515625,-1.0775327682495117,-1.72575943171978,18.0,0.0,2.1969079971313477,-0.9741783142089844,0.0,22.5,0.0,3.063797950744629,-1.2534856796264648,0.0,19.25,0.0,2.6096105575561523,-0.22494792938232422,0.0,23.5,,,,,,,,,,,,,,,,,,,,,,,,,,,,,,,,,,,,,,,,,,,,,
0.0,2.080433048057273e-10,2.068939685821533,-1.2929837703704834,5.22077381326369e-10,-1.7274771928787231,-1.1662639379501343,1.6715941131284495e-11,-1.4087485074996948,-0.32878440618515015,0.0,1.8961429595947266,-1.0410547256469727,-0.19175104796886444,13.5,0.0,1.9841194152832031,-1.067519187927246,-1.1505062878131866,25.0,0.0,2.046346664428711,-1.0868310928344727,-1.1505062878131866,25.25,0.0,2.1282434463500977,-1.1218786239624023,-1.1505062878131866,19.25,0.0,3.031611442565918,-1.2634992599487305,0.0,17.75,0.0,3.149271011352539,-1.2581348419189453,0.0,16.25,,,,,,,,,,,,,,,,,,,,,,,,,,,,,,,,,,,,,,,,,,,,,,,,,,,,,,,
0.0,1.974450325459287e-10,1.9868625402450562,-1.305604338645935,4.3929060389302776e-10,-1.669128179550171,-1.0438566207885742,-3.712924065424339e-11,-1.1900614500045776,-0.22046758234500885,0.0,1.775979995727539,-1.188039779663086,0.19175104796886444,12.25,0.0,1.9050836563110352,-1.1987686157226562,-0.19175104796886444,21.25,0.0,2.2430419921875,-0.9140968322753906,-0.19175104796886444,23.5,0.0,2.3832321166992188,-0.8407831192016602,-1.1505062878131866,23.75,0.0,2.481222152709961,-0.8254051208496094,-1.1505062878131866,18.75,0.0,1.8460750579833984,-1.2295246124267578,0.0,28.25,0.0,2.9397010803222656,-1.3986825942993164,0.0,17.5,0.0,3.0208826065063477,-1.5181303024291992,0.0,14.25,,,,,,,,,,,,,,,,,,,,,,,,,,,,,,,,,,,,,,,,,,,,,
0.0,1.3540514195997666e-11,3.0614118576049805,-0.8574803471565247,4.093487354639436e-11,-0.20149590075016022,-0.7252514362335205,2.9599364625987334e-11,-0.08421075344085693,-0.3802822530269623,0.0,3.0738115310668945,-0.6827116012573242,-0.19175104796886444,17.25,0.0,2.908945083618164,0.06365776062011719,-0.19175104796886444,30.5,0.0,2.9647350311279297,-0.08726119995117188,-0.19175104796886444,26.25,0.0,2.7920007705688477,0.16558170318603516,-0.19175104796886444,17.0,0.0,2.870321273803711,0.13697147369384766,-0.19175104796886444,28.0,0.0,3.219723701477051,-1.0088682174682617,0.0,22.75,0.0,3.1621456146240234,-0.7814168930053711,0.0,27.25,0.0,3.4232139587402344,-0.8904933929443359,0.0,12.25,0.0,3.902435302734375,-0.9988546371459961,0.0,13.0,0.0,3.0580759048461914,-0.17344951629638672,0.0,28.25,0.0,2.953648567199707,0.08225440979003906,0.0,30.25,0.0,2.8012990951538086,0.171661376953125,0.0,12.25,0.0,2.9021501541137695,0.14340877532958984,0.0,25.75,,,,,,,,,,,,,,,,,,,,
0.0,1.3819655489410998e-11,3.072324514389038,-0.8711485266685486,3.9049170147409384e-11,-0.17823609709739685,-0.6600462794303894,2.6673448172420677e-11,-0.07655313611030579,-0.291206955909729,0.0,3.1828880310058594,-0.8890628814697266,-0.19175104796886444,24.5,0.0,3.268718719482422,-0.8887052536010742,-0.19175104796886444,20.25,0.0,3.048062324523926,-0.6237030029296875,-0.19175104796886444,21.25,0.0,3.460049629211426,-0.6208419799804688,-0.19175104796886444,15.25,0.0,2.8824806213378906,0.02968311309814453,-0.3835020959377289,25.25,0.0,2.764105796813965,0.20205974578857422,-0.3835020959377289,15.25,0.0,2.8438568115234375,0.09942054748535156,-0.3835020959377289,24.25,0.0,3.219723701477051,-1.010298728942871,0.0,23.25,0.0,3.1549930572509766,-0.8722543716430664,0.0,28.0,0.0,3.417849540710449,-0.8196830749511719,0.0,13.0,0.0,3.0562877655029297,-0.16415119171142578,0.0,28.25,0.0,2.9375553131103516,0.07295608520507812,0.0,30.5,0.0,2.7905702590942383,0.1952648162841797,0.0,15.25,0.0,2.8846263885498047,0.13339519500732422,0.0,27.0,,,,,,,,,,,,,,,
0.0,1.4708824436215906e-11,3.0583434104919434,-0.9330556392669678,3.7893653492826473e-11,-0.19436243176460266,-0.6747641563415527,2.438140661586985e-11,-0.09945564717054367,-0.2742861807346344,0.0,3.1685829162597656,-0.9917020797729492,-0.19175104796886444,25.75,0.0,3.178238868713379,-1.040339469909668,-0.19175104796886444,21.75,0.0,3.074169158935547,-0.8293390274047852,-0.19175104796886444,21.25,0.0,2.74050235748291,0.21851062774658203,-0.3835020959377289,27.25,0.0,2.817392349243164,0.102996826171875,-0.3835020959377289,24.25,0.0,2.693653106689453,0.2624988555908203,-0.9587552398443222,23.75,0.0,3.1571388244628906,-0.9430646896362305,0.0,27.0,0.0,3.208637237548828,-1.0818243026733398,0.0,21.5,0.0,3.446817398071289,-0.7528066635131836,0.0,14.0,0.0,3.036618232727051,-0.1283884048461914,0.0,27.5,0.0,2.9135942459106445,0.061511993408203125,0.0,31.0,0.0,2.8513669967651367,0.14519691467285156,0.0,28.75,,,,,,,,,,,,,,,,,,,,,,,,,
0.0,1.5181467194480547e-11,3.046292543411255,-0.9630783796310425,3.619694127765527e-11,-0.20930589735507965,-0.6343278884887695,2.1918151321687063e-11,-0.12336218357086182,-0.21315112709999084,0.0,3.1882524490356445,-1.0242462158203125,-0.19175104796886444,18.0,0.0,3.0863285064697266,-0.7263422012329102,-0.3835020959377289,21.75,0.0,3.1371116638183594,-0.9337663650512695,-0.19175104796886444,21.5,0.0,2.8592348098754883,0.02110004425048828,-0.9587552398443222,21.0,0.0,2.706170082092285,0.1856088638305664,-0.9587552398443222,25.25,0.0,2.556324005126953,0.30112266540527344,-0.9587552398443222,16.0,0.0,2.639651298522949,0.2796649932861328,-0.9587552398443222,24.0,0.0,3.0434131622314453,-0.16808509826660156,0.0,26.5,0.0,2.831697463989258,0.1577138900756836,0.0,29.25,0.0,2.895355224609375,0.10085105895996094,0.0,31.0,0.0,2.7147531509399414,0.2696514129638672,0.0,22.25,,,,,,,,,,,,,,,,,,,,,,,,,,,,,,
0.0,1.4304229675743407e-11,3.014435291290283,-0.9763104915618896,3.289559596941771e-11,-0.26451724767684937,-0.563358724117279,1.8663830897436284e-11,-0.19132265448570251,-0.12723566591739655,0.0,3.1009912490844727,-1.2513399124145508,-0.3835020959377289,19.75,0.0,3.0927658081054688,-0.9938478469848633,-0.3835020959377289,23.0,0.0,3.0416250228881836,-0.8454322814941406,-0.19175104796886444,25.5,0.0,2.899289131164551,-0.5947351455688477,-0.5752531439065933,22.0,0.0,2.695798873901367,0.0064373016357421875,-1.1505062878131866,24.5,0.0,2.552032470703125,0.1798868179321289,-1.1505062878131866,18.75,0.0,2.6178359985351562,0.12445449829101562,-1.1505062878131866,25.0,0.0,2.9053688049316406,-0.005364418029785156,0.0,29.0,,,,,,,,,,,,,,,,,,,,,,,,,,,,,,,,,,,,,,,,,,,,,
0.0,1.135443909033862e-11,2.987429618835449,-0.9946770668029785,2.7235569702299678e-11,-0.3497283458709717,-0.48837536573410034,1.4200793319041338e-11,-0.31867098808288574,-0.029477208852767944,0.0,3.040909767150879,-1.2066364288330078,-0.3835020959377289,17.75,0.0,3.1582117080688477,-1.3664960861206055,-0.3835020959377289,16.5,0.0,3.320932388305664,-1.4061927795410156,-0.5752531439065933,16.25,0.0,3.4543275833129883,-1.4537572860717773,-0.7670041918754578,13.0,0.0,2.9611587524414062,-1.0607242584228516,-0.5752531439065933,18.75,0.0,2.920389175415039,-0.6687641143798828,-0.5752531439065933,17.5,0.0,2.6868581771850586,-0.11515617370605469,-0.7670041918754578,15.0,0.0,2.3581981658935547,0.21886825561523438,-1.1505062878131866,15.0,0.0,2.4307966232299805,0.19311904907226562,-1.1505062878131866,21.25,0.0,2.482295036315918,0.19276142120361328,-1.1505062878131866,20.75,0.0,3.204345703125,-1.4094114303588867,0.0,14.25,0.0,2.9064416885375977,-0.020384788513183594,0.0,28.75,,,,,,,,,,,,,,,,,,,,,,,,,
0.0,9.428341787853789e-12,2.8874688148498535,-0.977904736995697,2.2942269611858634e-11,-0.598872184753418,-0.33155813813209534,1.0735397813765868e-11,-0.6381321549415588,0.15705037117004395,0.0,3.2036304473876953,-1.6411542892456055,-1.9175104796886444,12.75,0.0,2.9200315475463867,-1.191258430480957,-1.5340083837509155,21.25,0.0,2.9726028442382812,-1.2613534927368164,-1.5340083837509155,21.0,0.0,3.088831901550293,-1.335740089416504,-0.5752531439065933,15.75,0.0,2.8738975524902344,-0.8754730224609375,-1.342257335782051,18.75,0.0,2.725839614868164,-0.6262063980102539,-1.342257335782051,17.0,0.0,2.5337934494018555,-0.08118152618408203,-0.5752531439065933,16.25,0.0,2.3860931396484375,0.0654458999633789,-0.5752531439065933,18.75,0.0,2.309560775756836,0.10836124420166016,-0.5752531439065933,16.0,0.0,3.240823745727539,-1.371145248413086,0.0,14.75,0.0,2.884984016418457,0.005364418029785156,0.0,27.0,,,,,,,,,,,,,,,,,,,,,,,,,,,,,,
0.0,7.805050009079828e-12,2.7771456241607666,-1.0711352825164795,1.9231664871721676e-11,-0.7798290252685547,-0.3946337103843689,7.847554203688212e-12,-0.7840744853019714,0.11182744801044464,0.0,3.1206607818603516,-1.7130374908447266,0.19175104796886444,14.5,0.0,2.4776458740234375,-1.2770891189575195,-1.1505062878131866,23.0,0.0,2.622842788696289,-1.292109489440918,-2.109261527657509,22.5,0.0,2.932906150817871,-1.4079809188842773,0.19175104796886444,17.5,0.0,3.017306327819824,-1.621842384338379,0.19175104796886444,16.75,0.0,2.8291940689086914,-1.2134313583374023,-2.109261527657509,19.25,0.0,2.483367919921875,-0.9126663208007812,-0.7670041918754578,19.75,0.0,2.4275779724121094,-0.23925304412841797,-0.3835020959377289,15.75,0.0,2.2777318954467773,-0.0400543212890625,-0.19175104796886444,12.5,0.0,3.167867660522461,-1.5267133712768555,0.0,15.5,0.0,2.875685691833496,-0.027894973754882812,0.0,25.0,0.0,2.7723312377929688,0.12373924255371094,0.0,26.75,,,,,,,,,,,,,,,,,,,,,,,,,
0.0,7.221898426501561e-12,2.6012589931488037,-1.1793193817138672,1.689205893218304e-11,-1.018776774406433,-0.49038004875183105,5.929700740842092e-12,-0.9415248036384583,0.03218619525432587,0.0,1.8442869186401367,-1.3275146484375,-0.19175104796886444,19.75,0.0,2.157926559448242,-1.2180805206298828,-0.9587552398443222,22.75,0.0,2.4579763412475586,-1.3386011123657227,-0.9587552398443222,20.75,0.0,2.3528337478637695,-1.181960105895996,-0.9587552398443222,27.5,0.0,2.407193183898926,-1.2563467025756836,-0.9587552398443222,28.0,0.0,2.5888681411743164,-1.3979673385620117,-2.8762657195329666,12.25,0.0,3.186464309692383,-1.5048980712890625,0.0,15.75,0.0,3.132462501525879,-1.0464191436767578,0.0,21.0,0.0,3.203272819519043,-1.131892204284668,0.0,20.25,0.0,2.8731822967529297,-0.06222724914550781,0.0,24.75,,,,,,,,,,,,,,,,,,,,,,,,,,,,,,,,,,,
0.0,6.9110667709482154e-12,2.453829288482666,-1.2720109224319458,1.499106047631038e-11,-1.1343433856964111,-0.5929532051086426,4.406346381519155e-12,-0.913921058177948,-0.085646852850914,0.0,1.9648075103759766,-1.0818243026733398,-0.19175104796886444,27.25,0.0,2.0513534545898438,-1.2345314025878906,0.3835020959377289,27.0,0.0,2.2476911544799805,-1.2173652648925781,0.3835020959377289,28.5,0.0,2.305269241333008,-1.3021230697631836,0.3835020959377289,24.0,0.0,2.3910999298095703,-1.4140605926513672,-1.342257335782051,15.25,0.0,3.1735897064208984,-1.547098159790039,0.0,14.25,0.0,3.1603574752807617,-1.2159347534179688,0.0,19.0,0.0,3.110647201538086,-1.0592937469482422,0.0,20.5,,,,,,,,,,,,,,,,,,,,,,,,,,,,,,,,,,,,,,,,,,,,,
0.0,6.364410734538417e-12,2.2968742847442627,-1.3010903596878052,1.2814280886397356e-11,-1.271660327911377,-0.5560716390609741,2.7621926013826625e-12,-0.9449728727340698,-0.05152525752782822,0.0,1.89971923828125,-1.1343955993652344,-0.7670041918754578,23.0,0.0,2.0731687545776367,-1.2295246124267578,-1.72575943171978,25.0,0.0,2.194046974182129,-1.2148618698120117,0.19175104796886444,23.5,0.0,1.8149614334106445,-0.9273290634155273,-0.7670041918754578,15.5,0.0,2.306342124938965,-1.181960105895996,0.19175104796886444,15.0,0.0,3.177523612976074,-1.5478134155273438,0.0,13.75,0.0,3.1728744506835938,-1.2023448944091797,0.0,18.5,0.0,3.099203109741211,-1.086115837097168,0.0,19.75,,,,,,,,,,,,,,,,,,,,,,,,,,,,,,,,,,,,,,,,,,,,,
0.0,5.710249981194515e-12,2.171082019805908,-1.308101773262024,1.0590884072514406e-11,-1.3335449695587158,-0.4876534938812256,1.1821000992298658e-12,-0.8980144262313843,0.0006217695772647858,0.0,1.866459846496582,-1.250624656677246,-0.7670041918754578,21.0,0.0,1.818537712097168,-1.0346174240112305,-0.5752531439065933,13.0,0.0,2.121090888977051,-1.1658668518066406,-0.5752531439065933,23.25,0.0,2.268075942993164,-1.0925531387329102,-0.5752531439065933,23.5,0.0,2.3370981216430664,-1.0800361633300781,-0.5752531439065933,15.25,0.0,3.0559301376342773,-1.1698007583618164,0.0,19.75,0.0,3.101348876953125,-1.3443231582641602,0.0,17.5,0.0,2.977609634399414,-0.9938478469848633,0.0,18.0,,,,,,,,,,,,,,,,,,,,,,,,,,,,,,,,,,,,,,,,,,,,,
0.0,5.394574977696243e-12,2.0729575157165527,-1.327162742614746,8.926156688793263e-12,-1.3269709348678589,-0.45631805062294006,5.58159204619435e-14,-0.7812292575836182,0.005872156471014023,0.0,1.8954277038574219,-1.259922981262207,-0.19175104796886444,20.75,0.0,2.090334892272949,-1.1565685272216797,-0.3835020959377289,24.0,0.0,2.2133588790893555,-1.110076904296875,-0.3835020959377289,20.75,0.0,2.418994903564453,-1.1143684387207031,-0.3835020959377289,12.25,0.0,1.7545223236083984,-1.384735107421875,0.0,26.75,0.0,3.0426979064941406,-1.4719963073730469,0.0,16.0,0.0,3.0280351638793945,-1.2320280075073242,0.0,18.5,0.0,2.947568893432617,-1.0399818420410156,0.0,16.75,,,,,,,,,,,,,,,,,,,,,,,,,,,,,,,,,,,,,,,,,,,,,
0.0,4.72722468808362e-12,2.019292116165161,-1.2901780605316162,6.9123326854048095e-12,-1.2166792154312134,-0.33948275446891785,-1.2173598717621359e-12,-0.5672858357429504,0.07350178062915802,0.0,1.6683340072631836,-1.319289207458496,-0.19175104796886444,20.0,0.0,1.6368627548217773,-1.1615753173828125,-0.19175104796886444,17.25,0.0,2.296328544616699,-0.7431507110595703,-0.19175104796886444,22.0,0.0,2.3714303970336914,-0.8089542388916016,-0.19175104796886444,19.25,0.0,2.512693405151367,-0.881195068359375,-0.5752531439065933,13.25,0.0,1.752018928527832,-1.295328140258789,0.0,28.25,0.0,2.99227237701416,-1.3039112091064453,0.0,16.25,,,,,,,,,,,,,,,,,,,,,,,,,,,,,,,,,,,,,,,,,,,,,,,,,,
0.0,2.2933976766281727e-13,2.930938959121704,-0.32157671451568604,7.511632917241162e-13,-0.19763043522834778,-0.4507957398891449,4.648526572351153e-13,-0.15081357955932617,-0.43660250306129456,0.0,3.0344724655151367,-1.5807151794433594,-0.19175104796886444,15.25,0.0,3.085970878601074,-1.0889768600463867,-0.19175104796886444,16.5,0.0,2.976536750793457,-0.4438161849975586,-0.19175104796886444,19.5,0.0,2.822399139404297,-0.04935264587402344,-0.3835020959377289,24.5,0.0,2.7219057083129883,0.14019012451171875,-0.3835020959377289,23.75,0.0,2.7451515197753906,0.14984607696533203,-0.3835020959377289,27.75,0.0,3.120303153991699,-0.916600227355957,0.0,26.25,0.0,2.828836441040039,0.0743865966796875,0.0,30.0,0.0,2.8792619705200195,-0.004291534423828125,0.0,30.25,0.0,2.764463424682617,0.14090538024902344,0.0,22.0,,,,,,,,,,,,,,,,,,,,,,,,,,,,,,,,,,,
0.0,2.1780111893708598e-13,2.9198765754699707,-0.3934381902217865,6.863679004494305e-13,-0.23730039596557617,-0.5286552906036377,3.9535581297482636e-13,-0.20858055353164673,-0.4602600038051605,0.0,3.1278133392333984,-1.6919374465942383,-0.19175104796886444,13.75,0.0,3.072381019592285,-1.4469623565673828,-0.3835020959377289,18.0,0.0,3.132462501525879,-1.694798469543457,-0.19175104796886444,13.75,0.0,3.09598445892334,-1.0006427764892578,-0.3835020959377289,22.25,0.0,3.6149024963378906,-1.1633634567260742,-0.3835020959377289,12.25,0.0,3.0012130737304688,-0.6380081176757812,-0.19175104796886444,23.5,0.0,2.865314483642578,-0.09942054748535156,-0.5752531439065933,26.0,0.0,2.7369260787963867,0.08511543273925781,-0.3835020959377289,22.25,0.0,2.7816295623779297,0.05543231964111328,-0.3835020959377289,27.75,0.0,3.1260251998901367,-0.9130239486694336,0.0,26.75,0.0,2.879619598388672,0.011086463928222656,0.0,31.0,0.0,2.820611000061035,0.10764598846435547,0.0,30.5,,,,,,,,,,,,,,,,,,,,,,,,,
0.0,2.0852932011358738e-13,2.884188175201416,-0.4253113269805908,6.236240365255219e-13,-0.3127591609954834,-0.5243647694587708,3.30683587066935e-13,-0.2949928045272827,-0.41035687923431396,0.0,3.026604652404785,-1.4365911483764648,-0.7670041918754578,13.5,0.0,2.9851198196411133,-0.9459257125854492,-0.3835020959377289,24.75,0.0,3.0412673950195312,-0.9906291961669922,-0.3835020959377289,21.25,0.0,2.9364824295043945,-0.4996061325073242,-0.19175104796886444,21.0,0.0,2.578139305114746,0.19848346710205078,-0.7670041918754578,12.75,0.0,2.6443004608154297,0.22852420806884766,-0.7670041918754578,22.0,0.0,2.705812454223633,0.24569034576416016,-0.3835020959377289,22.5,0.0,3.1338930130004883,-0.9473562240600586,0.0,25.75,0.0,3.1696557998657227,-1.1769533157348633,0.0,19.25,0.0,3.008723258972168,-0.6591081619262695,0.0,26.75,0.0,2.8960704803466797,-0.1519918441772461,0.0,29.0,0.0,2.820611000061035,0.056862831115722656,0.0,28.0,,,,,,,,,,,,,,,,,,,,,,,,,
0.0,1.9889641420401533e-13,2.840319871902466,-0.46822860836982727,5.602778982947976e-13,-0.39747491478919983,-0.5348276495933533,2.690311081549046e-13,-0.38286837935447693,-0.3763774335384369,0.0,3.128170967102051,-1.2913942337036133,-0.19175104796886444,16.0,0.0,2.955794334411621,-0.9802579879760742,-1.1505062878131866,21.0,0.0,3.0548572540283203,-1.122593879699707,-0.19175104796886444,17.75,0.0,2.8363466262817383,-0.6083250045776367,-0.5752531439065933,20.25,0.0,2.695441246032715,-0.1938343048095703,-0.5752531439065933,22.25,0.0,2.5634765625,0.19240379333496094,-0.5752531439065933,16.75,0.0,2.6092529296875,0.16951560974121094,-0.5752531439065933,23.5,0.0,3.1217336654663086,-0.9316205978393555,0.0,25.0,0.0,3.177523612976074,-1.0775327682495117,0.0,17.75,0.0,3.0237436294555664,-0.6544589996337891,0.0,27.0,,,,,,,,,,,,,,,,,,,,,,,,,,,,,,,,,,,
0.0,1.8903208534072624e-13,2.8028690814971924,-0.5990042090415955,4.974684943495622e-13,-0.4659217298030853,-0.6980524063110352,2.1118962698421506e-13,-0.442764014005661,-0.47740018367767334,0.0,3.0072927474975586,-1.1447668075561523,-0.3835020959377289,27.0,0.0,3.0770301818847656,-1.2491941452026367,-0.3835020959377289,21.0,0.0,2.8617382049560547,-0.93841552734375,-0.5752531439065933,27.25,0.0,2.9529333114624023,-1.0235309600830078,-0.5752531439065933,29.5,0.0,2.637505531311035,-0.6036758422851562,-0.5752531439065933,18.75,0.0,2.76339054107666,-0.6712675094604492,-0.5752531439065933,23.0,0.0,2.445101737976074,0.3654956817626953,-0.5752531439065933,13.5,,,,,,,,,,,,,,,,,,,,,,,,,,,,,,,,,,,,,,,,,,,,,,,,,,
0.0,1.7139253612272892e-13,2.7554636001586914,-0.7280662059783936,4.2490414398771437e-13,-0.5744982957839966,-0.8250736594200134,1.498967779327981e-13,-0.5657407641410828,-0.5269825458526611,0.0,2.8645992279052734,-1.4652013778686523,-0.9587552398443222,19.25,0.0,3.013014793395996,-1.6111135482788086,-0.3835020959377289,16.25,0.0,3.1946897506713867,-1.6429424285888672,-0.3835020959377289,14.75,0.0,2.8073787689208984,-1.2055635452270508,-0.9587552398443222,24.0,0.0,2.813100814819336,-0.881195068359375,-0.9587552398443222,25.75,0.0,2.7780532836914062,-0.6415843963623047,-0.9587552398443222,22.25,0.0,2.6525259017944336,-0.10979175567626953,-0.3835020959377289,16.5,0.0,2.492666244506836,0.0017881393432617188,-0.3835020959377289,13.5,,,,,,,,,,,,,,,,,,,,,,,,,,,,,,,,,,,,,,,,,,,,,
0.0,1.5484826149190362e-13,2.6872363090515137,-0.816016435623169,3.5670424947120694e-13,-0.7058337926864624,-0.8544821739196777,9.501308160381194e-14,-0.6994494199752808,-0.4822896718978882,0.0,3.075242042541504,-1.4655590057373047,-0.3835020959377289,13.75,0.0,3.2587051391601562,-1.5442371368408203,-0.19175104796886444,12.25,0.0,2.7730464935302734,-1.2516975402832031,-1.1505062878131866,19.5,0.0,2.9550790786743164,-1.234889030456543,-0.5752531439065933,16.5,0.0,2.758026123046875,-0.8622407913208008,-1.1505062878131866,24.5,0.0,2.408623695373535,-0.6841421127319336,-0.7670041918754578,21.25,0.0,2.558112144470215,-0.5975961685180664,-0.7670041918754578,25.5,0.0,2.6865005493164062,-0.5586147308349609,-1.1505062878131866,26.75,0.0,1.7681121826171875,-1.4870166778564453,0.0,22.25,,,,,,,,,,,,,,,,,,,,,,,,,,,,,,,,,,,,,,,,
0.0,1.4770063156473862e-13,2.555417776107788,-0.9684217572212219,3.051756709750858e-13,-0.9135797023773193,-0.9977781772613525,5.4496094052322586e-14,-0.8722109198570251,-0.5446450710296631,0.0,1.981973648071289,-1.085042953491211,-0.5752531439065933,18.5,0.0,2.1865367889404297,-1.0571479797363281,-0.5752531439065933,18.75,0.0,2.3900270462036133,-1.1823177337646484,-1.1505062878131866,21.75,0.0,2.512335777282715,-1.216292381286621,-0.9587552398443222,26.25,0.0,2.564549446105957,-1.2466907501220703,-0.9587552398443222,22.75,0.0,2.6296377182006836,-1.3682842254638672,-0.9587552398443222,16.0,0.0,1.8782615661621094,-1.409769058227539,0.0,21.75,0.0,2.942204475402832,-0.9777545928955078,0.0,22.5,,,,,,,,,,,,,,,,,,,,,,,,,,,,,,,,,,,,,,,,,,,,,
0.0,1.3055699642043617e-13,2.434307098388672,-1.0942094326019287,2.429934779866333e-13,-1.0744619369506836,-1.0738093852996826,9.727123078361044e-15,-0.9747914671897888,-0.5442861318588257,0.0,2.476215362548828,-1.3561248779296875,-0.7670041918754578,22.5,0.0,2.536654472351074,-1.5388727188110352,-0.3835020959377289,16.75,0.0,2.0252466201782227,-0.9276866912841797,-1.1505062878131866,22.75,0.0,2.3785829544067383,-1.1597871780395508,-0.7670041918754578,27.25,0.0,2.4318695068359375,-1.2449026107788086,-0.7670041918754578,27.75,0.0,3.0831098556518555,-1.5331506729125977,-0.19175104796886444,12.5,0.0,2.238750457763672,-0.9680986404418945,-1.1505062878131866,21.5,0.0,1.7205476760864258,-1.452326774597168,0.0,25.75,0.0,1.9240379333496094,-1.4047622680664062,0.0,24.5,0.0,2.9304027557373047,-1.016378402709961,0.0,21.75,,,,,,,,,,,,,,,,,,,,,,,,,,,,,,,,,,,
0.0,1.2271608696660247e-13,2.3028945922851562,-1.2449449300765991,1.990139552720399e-13,-1.1914563179016113,-1.2142003774642944,-1.9652939757357213e-14,-0.9760833382606506,-0.6309826374053955,0.0,2.0291805267333984,-1.3250112533569336,-0.19175104796886444,25.75,0.0,2.136826515197754,-1.3425350189208984,-0.19175104796886444,25.75,0.0,2.2923946380615234,-1.3232231140136719,-0.3835020959377289,20.25,0.0,2.4029016494750977,-1.4498233795166016,-0.3835020959377289,13.0,0.0,2.0581483840942383,-0.9773969650268555,-0.19175104796886444,22.0,0.0,1.7795562744140625,-1.3604164123535156,0.0,26.5,0.0,1.931905746459961,-1.3818740844726562,0.0,24.75,0.0,2.7490854263305664,-1.0410547256469727,0.0,20.25,0.0,3.0126571655273438,-1.142263412475586,0.0,19.75,0.0,2.899646759033203,-1.0607242584228516,0.0,20.75,,,,,,,,,,,,,,,,,,,,,,,,,,,,,,,,,,,
0.0,1.1025421298594545e-13,2.157315969467163,-1.3539940118789673,1.5192990095169723e-13,-1.3195831775665283,-1.251466155052185,-4.9241481118317276e-14,-1.0022833347320557,-0.6092672348022461,0.0,2.2122859954833984,-1.4197826385498047,-0.3835020959377289,14.75,0.0,1.7970800399780273,-1.1161565780639648,0.19175104796886444,15.0,0.0,1.8718242645263672,-1.188039779663086,-0.5752531439065933,24.25,0.0,1.9952058792114258,-1.268148422241211,-0.5752531439065933,24.25,0.0,2.1228790283203125,-1.3110637664794922,-0.5752531439065933,22.75,0.0,1.8364191055297852,-1.326441764831543,0.0,27.5,0.0,1.981973648071289,-1.3006925582885742,0.0,28.0,0.0,2.981901168823242,-1.2041330337524414,0.0,20.5,0.0,2.899289131164551,-1.0678768157958984,0.0,22.0,,,,,,,,,,,,,,,,,,,,,,,,,,,,,,,,,,,,,,,,
0.0,-2.7392626232895182e-15,3.116992950439453,-0.3033028244972229,1.5417791961744656e-14,-0.23847757279872894,-0.31703585386276245,2.191213756394441e-14,-0.3473118245601654,-0.7577193379402161,0.0,3.1664371490478516,-0.9902715682983398,-0.19175104796886444,20.25,0.0,3.2497644424438477,-1.0417699813842773,-0.19175104796886444,20.0,0.0,3.387451171875,-0.8958578109741211,-0.19175104796886444,13.0,0.0,3.083467483520508,-0.3644227981567383,-0.19175104796886444,19.5,0.0,2.969026565551758,-0.07724761962890625,-0.19175104796886444,19.5,0.0,2.854585647583008,0.2689361572265625,-0.19175104796886444,15.5,0.0,3.1374692916870117,-1.9851922988891602,0.0,13.25,0.0,3.2007694244384766,-1.4719963073730469,0.0,20.0,,,,,,,,,,,,,,,,,,,,,,,,,,,,,,,,,,,,,,,,,,,,,
0.0,-7.8781136819759505e-16,3.0709571838378906,-0.27355486154556274,1.7974801470388782e-14,-0.2873901128768921,-0.2887221872806549,2.21389763753509e-14,-0.3432859182357788,-0.6718761324882507,0.0,3.0144453048706055,-1.959085464477539,-0.3835020959377289,12.25,0.0,3.219008445739746,-1.2187957763671875,-0.19175104796886444,12.75,0.0,3.154635429382324,-0.5428791046142578,-0.19175104796886444,17.25,0.0,2.974390983581543,-0.23818016052246094,-0.19175104796886444,21.5,0.0,2.774477005004883,0.10764598846435547,-0.19175104796886444,20.0,0.0,2.819538116455078,0.13768672943115234,-0.19175104796886444,28.5,0.0,2.845287322998047,0.13446807861328125,-0.19175104796886444,27.75,0.0,2.7837753295898438,0.14197826385498047,0.0,14.5,,,,,,,,,,,,,,,,,,,,,,,,,,,,,,,,,,,,,,,,,,,,,
0.0,8.2223743415197e-16,3.0291802883148193,-0.29458916187286377,1.9818431360525864e-14,-0.3463010787963867,-0.3365885317325592,2.1907295923617905e-14,-0.3739660382270813,-0.6547500491142273,0.0,2.8127431869506836,-1.7559528350830078,-0.19175104796886444,15.75,0.0,3.259420394897461,-1.2778043746948242,-0.19175104796886444,16.0,0.0,3.3774375915527344,-1.2477636337280273,-0.19175104796886444,14.75,0.0,2.9354095458984375,-0.1366138458251953,-0.5752531439065933,23.25,0.0,2.7762651443481445,0.058650970458984375,-0.3835020959377289,20.75,0.0,2.837061882019043,0.011086463928222656,-0.19175104796886444,29.25,0.0,2.864956855773926,-0.04756450653076172,-0.5752531439065933,29.75,0.0,2.7877092361450195,0.09226799011230469,0.0,16.0,,,,,,,,,,,,,,,,,,,,,,,,,,,,,,,,,,,,,,,,,,,,,
0.0,2.2839724615032015e-15,2.9873416423797607,-0.28064244985580444,2.123552933974357e-14,-0.3908037841320038,-0.31452834606170654,2.1424056850945748e-14,-0.38062599301338196,-0.5791811943054199,0.0,2.986907958984375,-1.6297101974487305,-0.3835020959377289,13.5,0.0,3.150343894958496,-0.6129741668701172,-0.3835020959377289,18.25,0.0,3.0412673950195312,-0.3018379211425781,-0.3835020959377289,21.25,0.0,2.835988998413086,0.05650520324707031,-0.3835020959377289,22.25,0.0,2.916097640991211,-0.06651878356933594,-0.3835020959377289,23.75,0.0,2.7354955673217773,0.1366138458251953,-0.3835020959377289,15.25,0.0,3.1517744064331055,-0.8178949356079102,0.0,27.0,,,,,,,,,,,,,,,,,,,,,,,,,,,,,,,,,,,,,,,,,,,,,,,,,,
0.0,3.2457843023410904e-15,2.9145565032958984,-0.3936260938644409,2.174032201279156e-14,-0.5335232019424438,-0.5013535022735596,2.03717048113429e-14,-0.5335228443145752,-0.6840894222259521,0.0,2.8846263885498047,-1.153707504272461,-0.7670041918754578,19.75,0.0,3.0012130737304688,-1.2663602828979492,-0.7670041918754578,20.0,0.0,3.102421760559082,-1.2913942337036133,-0.7670041918754578,15.0,0.0,2.82132625579834,-0.354766845703125,-0.7670041918754578,22.5,0.0,2.719402313232422,0.05650520324707031,-0.9587552398443222,21.0,0.0,2.755880355834961,-0.06365776062011719,-0.7670041918754578,25.5,0.0,3.171086311340332,-0.8261203765869141,0.0,26.75,,,,,,,,,,,,,,,,,,,,,,,,,,,,,,,,,,,,,,,,,,,,,,,,,,
0.0,3.933867493636622e-15,2.856698751449585,-0.5195436477661133,2.1768253771260217e-14,-0.6039804816246033,-0.6938177943229675,1.9095073693900164e-14,-0.5611097812652588,-0.7895093560218811,0.0,3.063082695007324,-1.6980171203613281,-0.19175104796886444,14.25,0.0,3.0645132064819336,-1.199483871459961,-0.19175104796886444,23.5,0.0,3.0788183212280273,-1.3614892959594727,-0.19175104796886444,21.5,0.0,2.965092658996582,-1.0192394256591797,-0.19175104796886444,23.75,0.0,2.802729606628418,-0.6158351898193359,-0.7670041918754578,24.0,0.0,2.7054548263549805,-0.32258033752441406,-0.7670041918754578,27.5,0.0,2.668619155883789,-0.20492076873779297,-0.7670041918754578,25.5,0.0,2.591729164123535,-0.05793571472167969,-0.7670041918754578,15.5,0.0,3.177523612976074,-1.5263557434082031,0.0,14.5,0.0,3.174304962158203,-1.1905431747436523,0.0,20.0,0.0,3.171086311340332,-0.7756948471069336,0.0,22.75,,,,,,,,,,,,,,,,,,,,,,,,,,,,,,
0.0,4.522590967362145e-15,2.8146653175354004,-0.5476350784301758,2.1538438486077074e-14,-0.62238609790802,-0.6929452419281006,1.7733927323046288e-14,-0.521458625793457,-0.7211648225784302,0.0,3.0813217163085938,-0.9448528289794922,0.19175104796886444,20.0,0.0,3.1599998474121094,-1.042485237121582,-0.5752531439065933,14.0,0.0,3.0301809310913086,-0.7799863815307617,0.19175104796886444,22.75,0.0,2.8907060623168945,-0.6158351898193359,-0.7670041918754578,21.5,0.0,2.7233362197875977,-0.2989768981933594,-0.7670041918754578,21.0,0.0,2.5845766067504883,-0.00286102294921875,-0.7670041918754578,21.75,0.0,2.509474754333496,0.13446807861328125,-0.7670041918754578,18.25,0.0,3.162860870361328,-1.568913459777832,0.0,14.5,,,,,,,,,,,,,,,,,,,,,,,,,,,,,,,,,,,,,,,,,,,,,
0.0,5.0080916180034706e-15,2.7684149742126465,-0.6743704676628113,2.1046807010963522e-14,-0.6355794072151184,-0.8670605421066284,1.6282575331441618e-14,-0.4693657457828522,-0.8161276578903198,0.0,2.9801130294799805,-1.2427568435668945,-0.19175104796886444,21.0,0.0,3.0444860458374023,-1.3654232025146484,-0.19175104796886444,16.25,0.0,2.9511451721191406,-1.067519187927246,-0.19175104796886444,22.5,0.0,2.9207468032836914,-0.6662607192993164,-0.19175104796886444,21.25,0.0,2.5244951248168945,-0.43380260467529297,-0.3835020959377289,19.75,0.0,2.7036666870117188,-0.5868673324584961,-0.3835020959377289,18.25,0.0,2.452254295349121,-0.25069713592529297,-0.5752531439065933,18.5,0.0,3.2057762145996094,-1.4988183975219727,0.0,15.25,0.0,3.0655860900878906,-1.1719465255737305,0.0,21.75,0.0,3.1456947326660156,-1.293182373046875,0.0,19.0,,,,,,,,,,,,,,,,,,,,,,,,,,,,,,,,,,,
0.0,5.071511515863242e-15,2.685149908065796,-0.7920253872871399,1.981963584137686e-14,-0.7553505897521973,-0.9781875610351562,1.4403076984120106e-14,-0.5840053558349609,-0.8261597752571106,0.0,2.7920007705688477,-1.3968944549560547,-1.5340083837509155,19.25,0.0,2.8645992279052734,-1.5463829040527344,-0.19175104796886444,18.25,0.0,3.0030012130737305,-1.5742778778076172,-0.19175104796886444,15.75,0.0,2.765536308288574,-1.0761022567749023,-1.5340083837509155,20.25,0.0,2.644658088684082,-0.8436441421508789,-0.3835020959377289,18.5,0.0,2.488374710083008,-0.5056858062744141,-0.3835020959377289,17.75,0.0,2.3936033248901367,-0.2503395080566406,-0.3835020959377289,19.25,0.0,2.3392438888549805,-0.21636486053466797,-0.5752531439065933,14.5,0.0,3.092050552368164,-1.4051198959350586,0.0,16.5,0.0,3.0509233474731445,-1.0946989059448242,0.0,19.0,,,,,,,,,,,,,,,,,,,,,,,,,,,,,,,,,,,
0.0,5.2664214203229816e-15,2.5926055908203125,-0.9283180832862854,1.8708125326671876e-14,-0.8843892812728882,-1.1006208658218384,1.2703438459851519e-14,-0.6987169981002808,-0.8420029282569885,0.0,2.479434013366699,-1.221299171447754,-1.1505062878131866,26.5,0.0,2.545952796936035,-1.2778043746948242,-1.1505062878131866,21.5,0.0,2.7469396591186523,-1.2649297714233398,-0.9587552398443222,15.5,0.0,3.0573606491088867,-1.4927387237548828,-0.19175104796886444,13.0,0.0,2.9736757278442383,-1.3217926025390625,-0.9587552398443222,14.5,0.0,2.472996711730957,-0.9065866470336914,-0.19175104796886444,23.0,0.0,2.437591552734375,-0.3991127014160156,-0.3835020959377289,19.5,,,,,,,,,,,,,,,,,,,,,,,,,,,,,,,,,,,,,,,,,,,,,,,,,,
0.0,5.129432899345912e-15,2.4948418140411377,-1.0345481634140015,1.7120150308806877e-14,-0.9879930019378662,-1.1531569957733154,1.0798669731581622e-14,-0.7582398056983948,-0.7986266613006592,0.0,2.4018287658691406,-1.131892204284668,-0.7670041918754578,24.5,0.0,2.561330795288086,-1.1862516403198242,-0.7670041918754578,17.0,0.0,2.721548080444336,-1.3968944549560547,-0.9587552398443222,12.5,0.0,2.307772636413574,-0.8758306503295898,0.19175104796886444,25.5,0.0,2.329230308532715,-1.0374784469604492,0.19175104796886444,27.5,0.0,2.9937028884887695,-1.3439655303955078,-1.5340083837509155,13.0,0.0,3.128170967102051,-1.3775825500488281,-1.5340083837509155,12.25,0.0,2.2612810134887695,-0.6312131881713867,-1.1505062878131866,19.5,0.0,3.064870834350586,-1.8056631088256836,0.0,13.25,0.0,3.087759017944336,-1.3675689697265625,0.0,17.0,,,,,,,,,,,,,,,,,,,,,,,,,,,,,,,,,,,
0.0,5.5751733999266466e-15,2.369472026824951,-1.212238073348999,1.6392933560073486e-14,-1.0762197971343994,-1.3676981925964355,9.611001637556058e-15,-0.7367346286773682,-0.9433414936065674,0.0,1.8807649612426758,-1.2717247009277344,0.19175104796886444,22.0,0.0,2.300262451171875,-1.3200044631958008,0.19175104796886444,22.25,0.0,2.417922019958496,-1.4251470565795898,-0.9587552398443222,14.75,0.0,2.1532773971557617,-1.155853271484375,0.19175104796886444,24.75,0.0,2.2644996643066406,-1.1801719665527344,0.19175104796886444,26.75,0.0,3.021240234375,-1.8618106842041016,0.0,12.75,,,,,,,,,,,,,,,,,,,,,,,,,,,,,,,,,,,,,,,,,,,,,,,,,,,,,,,
0.0,5.467872536717893e-15,2.258211374282837,-1.2762703895568848,1.484455225029494e-14,-1.143931269645691,-1.3069723844528198,7.931383584028773e-15,-0.7392954230308533,-0.7910085320472717,0.0,2.0123720169067383,-1.0932683944702148,-0.3835020959377289,26.0,0.0,1.8968582153320312,-0.9591579437255859,-0.3835020959377289,18.75,0.0,1.9333362579345703,-0.9770393371582031,-0.3835020959377289,30.0,0.0,2.224445343017578,-1.141190528869629,-0.5752531439065933,22.25,0.0,2.361774444580078,-1.198410987854004,-0.5752531439065933,17.0,0.0,2.9772520065307617,-1.313924789428711,-0.7670041918754578,12.25,,,,,,,,,,,,,,,,,,,,,,,,,,,,,,,,,,,,,,,,,,,,,,,,,,,,,,,
0.0,4.6473177335156434e-17,2.938214063644409,-0.5078597068786621,5.722585296594391e-16,-0.27622586488723755,-0.8384761810302734,5.806874603966851e-16,-0.1814773976802826,-0.8007854223251343,0.0,3.0122995376586914,-0.7874965667724609,-0.19175104796886444,21.5,0.0,3.1245946884155273,-0.9098052978515625,-0.3835020959377289,22.0,0.0,3.2737255096435547,-0.8776187896728516,-0.19175104796886444,16.25,0.0,2.912163734436035,-0.2989768981933594,-0.19175104796886444,22.25,0.0,2.7501583099365234,-0.09334087371826172,-0.19175104796886444,12.75,0.0,2.8388500213623047,-0.14483928680419922,-0.19175104796886444,20.5,0.0,3.1453371047973633,-0.9545087814331055,0.0,27.0,0.0,2.845644950866699,0.07545948028564453,0.0,28.0,0.0,2.8960704803466797,-0.027894973754882812,0.0,29.0,0.0,2.7773380279541016,0.1398324966430664,0.0,19.0,,,,,,,,,,,,,,,,,,,,,,,,,,,,,,,,,,,
0.0,7.880922919685079e-17,2.9076430797576904,-0.6256441473960876,5.953264131867259e-16,-0.3272745609283447,-0.9602172374725342,5.586448573124904e-16,-0.23742951452732086,-0.8295708894729614,0.0,2.9947757720947266,-1.2366771697998047,-0.19175104796886444,23.75,0.0,3.056645393371582,-1.3589859008789062,-0.19175104796886444,17.5,0.0,2.95257568359375,-1.0524988174438477,-0.19175104796886444,23.75,0.0,2.9175281524658203,-0.6036758422851562,-0.19175104796886444,21.5,0.0,2.822399139404297,-0.02682209014892578,-0.19175104796886444,19.0,0.0,2.731204032897949,0.0883340835571289,-0.5752531439065933,12.5,0.0,3.187894821166992,-1.202702522277832,0.0,20.25,0.0,3.0820369720458984,-1.0714530944824219,0.0,25.0,0.0,3.5490989685058594,-1.318216323852539,0.0,12.75,0.0,3.0069351196289062,-0.5600452423095703,0.0,26.25,0.0,2.844572067260742,0.07224082946777344,0.0,28.25,0.0,2.8896331787109375,-0.056862831115722656,0.0,29.25,0.0,2.7791261672973633,0.12481212615966797,0.0,19.25,,,,,,,,,,,,,,,,,,,,
0.0,9.826840826169945e-17,2.8562700748443604,-0.5850924849510193,5.948314283081742e-16,-0.4457383453845978,-0.7628960013389587,5.220532986889006e-16,-0.40451860427856445,-0.5611985921859741,0.0,2.872467041015625,-1.3571977615356445,-0.3835020959377289,23.5,0.0,2.945065498352051,-1.3489723205566406,-0.3835020959377289,22.0,0.0,3.0459165573120117,-1.3808012008666992,-0.19175104796886444,16.5,0.0,2.613186836242676,0.1283884048461914,-0.9587552398443222,17.25,0.0,2.6775598526000977,0.12767314910888672,-0.9587552398443222,28.5,0.0,2.682209014892578,0.11730194091796875,-0.9587552398443222,30.0,0.0,2.756953239440918,0.09906291961669922,-0.9587552398443222,22.75,0.0,3.037691116333008,-1.1930465698242188,0.0,24.75,0.0,3.539443016052246,-1.352548599243164,0.0,12.75,0.0,2.9811859130859375,-0.7899999618530273,0.0,26.5,0.0,2.8520822525024414,-0.02181529998779297,0.0,29.5,,,,,,,,,,,,,,,,,,,,,,,,,,,,,,
0.0,1.1931934752289615e-16,2.802241802215576,-0.6729540228843689,5.925155343512625e-16,-0.5557438731193542,-0.8130572438240051,4.865604476770181e-16,-0.5234483480453491,-0.5397154688835144,0.0,3.043055534362793,-1.386880874633789,-0.19175104796886444,15.75,0.0,2.933979034423828,-1.1447668075561523,-0.7670041918754578,25.5,0.0,2.9518604278564453,-1.2652873992919922,-0.7670041918754578,22.25,0.0,2.864956855773926,-0.9616613388061523,-0.7670041918754578,21.25,0.0,2.7379989624023438,-0.14662742614746094,-0.5752531439065933,19.5,0.0,2.6317834854125977,0.15163421630859375,-0.5752531439065933,19.0,0.0,3.0956268310546875,-1.027822494506836,0.0,22.5,0.0,3.555178642272949,-1.2810230255126953,0.0,12.25,0.0,2.9954910278320312,-0.7460117340087891,0.0,25.5,,,,,,,,,,,,,,,,,,,,,,,,,,,,,,,,,,,,,,,,
0.0,1.2970718753445548e-16,2.7476744651794434,-0.7221667170524597,5.723490563056769e-16,-0.6467350721359253,-0.7859839200973511,4.4157034562316514e-16,-0.6044981479644775,-0.45389997959136963,0.0,2.9325485229492188,-1.0989904403686523,-0.9587552398443222,17.0,0.0,3.1446218490600586,-1.2706518173217773,-0.19175104796886444,15.0,0.0,3.0759572982788086,-1.1197328567504883,-0.19175104796886444,16.25,0.0,2.840280532836914,-0.7731914520263672,-0.9587552398443222,17.0,0.0,2.6993751525878906,-0.5031824111938477,-0.5752531439065933,16.5,0.0,2.4747848510742188,-0.22923946380615234,-0.7670041918754578,14.75,0.0,2.5681257247924805,-0.20170211791992188,-0.7670041918754578,17.0,0.0,3.030538558959961,-1.2220144271850586,0.0,20.5,0.0,3.124237060546875,-1.3418197631835938,0.0,19.75,0.0,2.956867218017578,-0.9241104125976562,0.0,24.25,,,,,,,,,,,,,,,,,,,,,,,,,,,,,,,,,,,
0.0,1.314110604823065e-16,2.672903299331665,-0.8612250089645386,5.3738290096830895e-16,-0.7907184362411499,-0.9055116772651672,3.893554231061474e-16,-0.7420439720153809,-0.4954378306865692,0.0,2.9550790786743164,-1.6851425170898438,-0.3835020959377289,17.25,0.0,3.1381845474243164,-1.7262697219848633,-1.342257335782051,15.0,0.0,2.7762651443481445,-1.2595653533935547,-0.9587552398443222,21.0,0.0,2.805948257446289,-1.3965368270874023,-0.9587552398443222,22.75,0.0,2.84421443939209,-1.5206336975097656,-0.3835020959377289,20.5,0.0,2.6879310607910156,-0.6308555603027344,-0.3835020959377289,15.5,0.0,2.4268627166748047,-0.35011768341064453,-0.5752531439065933,19.5,0.0,2.4890899658203125,-0.32079219818115234,-0.5752531439065933,19.25,0.0,2.9772520065307617,-1.3550519943237305,0.0,20.75,0.0,2.9175281524658203,-1.1057853698730469,0.0,24.25,0.0,3.107786178588867,-1.3564825057983398,0.0,19.75,,,,,,,,,,,,,,,,,,,,,,,,,,,,,,
0.0,1.2489813150663959e-16,2.5314345359802246,-1.007840633392334,4.877578875666397e-16,-1.0758219957351685,-0.9804198145866394,3.294921636523378e-16,-1.0585206747055054,-0.45563140511512756,0.0,1.7219781875610352,-1.3965368270874023,-0.19175104796886444,23.5,0.0,2.04312801361084,-1.1240243911743164,-0.19175104796886444,21.0,0.0,2.994060516357422,-1.6858577728271484,-0.9587552398443222,15.5,0.0,3.162503242492676,-1.7158985137939453,-1.9175104796886444,13.5,0.0,2.513766288757324,-1.2395381927490234,-1.9175104796886444,20.25,0.0,2.6006698608398438,-1.3461112976074219,-1.9175104796886444,18.5,0.0,2.72369384765625,-1.3800859451293945,-1.9175104796886444,17.25,0.0,2.8821229934692383,-1.5045404434204102,-0.9587552398443222,16.25,0.0,2.520918846130371,-0.30863285064697266,-0.5752531439065933,19.75,0.0,2.9658079147338867,-1.3861656188964844,0.0,21.0,0.0,2.8814077377319336,-1.180887222290039,0.0,19.75,0.0,3.1156539916992188,-1.3318061828613281,0.0,19.75,0.0,2.5337934494018555,-0.1004934310913086,0.0,19.75,0.0,2.8499364852905273,-0.1316070556640625,0.0,26.0,0.0,2.7472972869873047,0.10371208190917969,0.0,29.25,,,,,,,,,,
0.0,1.399359971101678e-16,2.3997209072113037,-1.1129238605499268,4.708397279342151e-16,-1.216234564781189,-1.027251124382019,2.9620453644885224e-16,-1.1004141569137573,-0.4490727484226227,0.0,2.3589134216308594,-1.316070556640625,-0.7670041918754578,25.0,0.0,2.4236440658569336,-1.4026165008544922,-0.7670041918754578,17.5,0.0,2.1060705184936523,-0.9616613388061523,-0.7670041918754578,22.75,0.0,2.2966861724853516,-1.129746437072754,-0.7670041918754578,26.5,0.0,2.2208690643310547,-0.9609460830688477,-0.7670041918754578,26.5,0.0,2.899289131164551,-1.1261701583862305,0.0,20.0,0.0,2.974390983581543,-1.2831687927246094,0.0,19.75,0.0,3.0738115310668945,-1.370072364807129,0.0,16.5,0.0,2.857804298400879,-0.5185604095458984,0.0,23.75,,,,,,,,,,,,,,,,,,,,,,,,,,,,,,,,,,,,,,,,
0.0,1.4987496259924156e-16,2.2638497352600098,-1.2654858827590942,4.468496902251644e-16,-1.3094258308410645,-1.1889376640319824,2.6110698512554146e-16,-1.0453095436096191,-0.5807971954345703,0.0,2.13468074798584,-1.3715028762817383,0.3835020959377289,26.0,0.0,2.2644996643066406,-1.3915300369262695,-0.9587552398443222,21.5,0.0,2.4061203002929688,-1.466989517211914,-0.9587552398443222,14.0,0.0,2.0055770874023438,-1.0235309600830078,-0.3835020959377289,25.25,0.0,2.1010637283325195,-1.106858253479004,0.3835020959377289,25.5,0.0,1.880049705505371,-1.2316703796386719,0.0,23.5,0.0,2.9261112213134766,-1.359701156616211,0.0,19.5,0.0,3.0623674392700195,-1.4162063598632812,0.0,15.75,0.0,2.852797508239746,-1.2177228927612305,0.0,19.75,,,,,,,,,,,,,,,,,,,,,,,,,,,,,,,,,,,,,,,,
0.0,1.518770705538649e-16,2.12526798248291,-1.3392088413238525,4.1069668291001554e-16,-1.4063175916671753,-1.1589710712432861,2.1959967079256137e-16,-1.0402933359146118,-0.49924713373184204,0.0,2.187967300415039,-1.4848709106445312,-0.3835020959377289,12.25,0.0,1.8138885498046875,-1.0113716125488281,-0.7670041918754578,15.5,0.0,1.9075870513916016,-1.0875463485717773,-0.7670041918754578,24.0,0.0,2.035975456237793,-1.1451244354248047,-0.5752531439065933,24.25,0.0,2.1032094955444336,-1.2856721878051758,-0.5752531439065933,19.75,0.0,1.8385648727416992,-1.2631416320800781,0.0,23.5,0.0,2.8352737426757812,-1.294255256652832,0.0,19.5,0.0,2.914309501647949,-1.4033317565917969,0.0,18.75,0.0,3.0530691146850586,-1.453399658203125,0.0,15.0,,,,,,,,,,,,,,,,,,,,,,,,,,,,,,,,,,,,,,,,
0.0,1.5582585874462565e-16,2.0192911624908447,-1.3433163166046143,3.7861088957956543e-16,-1.4393616914749146,-0.9917870759963989,1.834773948915301e-16,-0.9889323115348816,-0.29242846369743347,0.0,1.919388771057129,-1.0156631469726562,-0.7670041918754578,12.25,0.0,2.013087272644043,-1.0564327239990234,-0.9587552398443222,26.25,0.0,2.07674503326416,-1.0339021682739258,-0.9587552398443222,27.0,0.0,2.1393299102783203,-1.0875463485717773,-0.9587552398443222,20.25,0.0,1.946568489074707,-1.1107921600341797,0.0,26.0,0.0,2.9436349868774414,-1.3543367385864258,0.0,17.0,0.0,3.060579299926758,-1.4755725860595703,0.0,14.25,0.0,2.8624534606933594,-1.1987686157226562,0.0,17.75,,,,,,,,,,,,,,,,,,,,,,,,,,,,,,,,,,,,,,,,,,,,,
0.0,-1.9278237751948478e-19,3.002932071685791,-0.058463625609874725,7.384816477280544e-21,-0.11301195621490479,0.5095227956771851,4.645154221943996e-19,-0.12832464277744293,0.25927507877349854,0.0,3.0355453491210938,-1.9408464431762695,0.19175104796886444,12.25,0.0,3.1174421310424805,-1.2334585189819336,-0.19175104796886444,18.5,0.0,3.18753719329834,-1.1293888092041016,-0.19175104796886444,14.75,0.0,2.9064416885375977,0.025391578674316406,-0.19175104796886444,19.25,0.0,2.69472599029541,0.18525123596191406,-0.3835020959377289,14.25,0.0,2.8009414672851562,0.12874603271484375,-0.19175104796886444,17.25,0.0,2.9990673065185547,0.4527568817138672,-0.19175104796886444,16.75,0.0,2.7773380279541016,0.04792213439941406,0.0,19.0,0.0,2.8477907180786133,-0.026464462280273438,0.0,28.0,0.0,2.8853416442871094,-0.0858306884765625,0.0,29.5,,,,,,,,,,,,,,,,,,,,,,,,,,,,,,,,,,,
0.0,-1.5439198178801257e-19,2.9601211547851562,-0.006289418321102858,9.890966291928226e-20,-0.18668818473815918,0.5312623977661133,4.931863811048883e-19,-0.2024846076965332,0.25441157817840576,0.0,3.0426979064941406,-1.9701719284057617,-0.19175104796886444,15.75,0.0,3.1288862228393555,-1.690506935119629,-0.19175104796886444,13.5,0.0,2.95865535736084,-0.21958351135253906,-0.19175104796886444,19.0,0.0,2.7658939361572266,0.08726119995117188,-0.3835020959377289,26.25,0.0,2.8406381607055664,-0.06794929504394531,-0.3835020959377289,24.0,0.0,2.7147531509399414,0.1741647720336914,-0.3835020959377289,22.0,0.0,3.3441781997680664,-1.2509822845458984,0.0,19.25,0.0,3.3141374588012695,-1.061081886291504,0.0,21.5,0.0,2.9990673065185547,-0.15091896057128906,0.0,25.0,,,,,,,,,,,,,,,,,,,,,,,,,,,,,,,,,,,,,,,,
0.0,-1.0451817365459053e-19,2.896158456802368,-0.025963585823774338,1.9617195687457395e-19,-0.32279396057128906,0.41949090361595154,5.238534302310441e-19,-0.36346742510795593,0.1351514607667923,0.0,3.1185150146484375,-1.669764518737793,-0.19175104796886444,12.75,0.0,3.189682960510254,-0.9845495223999023,-0.19175104796886444,18.75,0.0,3.1828880310058594,-1.1647939682006836,-0.19175104796886444,18.5,0.0,3.003716468811035,-0.8543729782104492,-0.19175104796886444,15.75,0.0,2.753734588623047,0.08618831634521484,-0.7670041918754578,22.5,0.0,2.6171207427978516,0.10371208190917969,-0.7670041918754578,15.75,0.0,2.688288688659668,0.11551380157470703,-0.7670041918754578,27.75,0.0,2.6911497116088867,0.10371208190917969,-0.7670041918754578,29.75,0.0,3.494739532470703,-1.3343095779418945,0.0,14.0,0.0,3.356337547302246,-1.2137889862060547,0.0,19.5,0.0,3.024458885192871,-0.1176595687866211,0.0,24.0,,,,,,,,,,,,,,,,,,,,,,,,,,,,,,
0.0,-6.280489646726478e-20,2.8776333332061768,-0.0602542944252491,2.736818046499073e-19,-0.3418394923210144,0.3014979064464569,5.397141014888656e-19,-0.35249388217926025,0.02516019344329834,0.0,3.1943321228027344,-1.2867450714111328,-0.3835020959377289,15.0,0.0,3.2830238342285156,-1.445174217224121,-0.3835020959377289,15.5,0.0,3.093838691711426,-0.949859619140625,-0.19175104796886444,18.5,0.0,3.0437707901000977,-0.3286600112915039,-0.5752531439065933,22.25,0.0,2.974390983581543,-0.11157989501953125,-0.19175104796886444,22.5,0.0,2.84421443939209,0.020742416381835938,-0.19175104796886444,18.0,0.0,2.6557445526123047,0.08654594421386719,-0.9587552398443222,14.0,0.0,3.3502578735351562,-1.2499094009399414,0.0,19.75,0.0,3.484010696411133,-1.3575553894042969,0.0,14.75,0.0,3.195047378540039,-0.8486509323120117,0.0,22.75,0.0,3.036618232727051,-0.3966093063354492,0.0,24.75,0.0,2.8696060180664062,-0.05900859832763672,0.0,27.5,,,,,,,,,,,,,,,,,,,,,,,,,
0.0,-2.394343753281496e-20,2.859971046447754,-0.23289544880390167,3.3862597758934173e-19,-0.3867947459220886,-0.04314771294593811,5.465055128118674e-19,-0.40013495087623596,-0.2649676203727722,0.0,3.24404239654541,-1.9268989562988281,-1.1505062878131866,13.0,0.0,3.1392574310302734,-1.668691635131836,-1.1505062878131866,15.75,0.0,3.0698776245117188,-0.9466409683227539,-0.5752531439065933,26.0,0.0,3.1392574310302734,-1.1397600173950195,-0.5752531439065933,20.25,0.0,2.977609634399414,-0.7917881011962891,-0.5752531439065933,25.0,0.0,3.018021583557129,-0.8851289749145508,-0.5752531439065933,29.25,0.0,2.8502941131591797,-0.3737211227416992,-0.7670041918754578,14.75,0.0,2.455472946166992,0.22029876708984375,-0.5752531439065933,15.75,0.0,2.5337934494018555,0.1709461212158203,-0.5752531439065933,16.0,0.0,3.278017044067383,-1.421213150024414,0.0,16.75,0.0,3.5001039505004883,-1.3611316680908203,0.0,12.25,0.0,3.028392791748047,-0.5840063095092773,0.0,25.25,0.0,2.875685691833496,-0.07581710815429688,0.0,26.25,,,,,,,,,,,,,,,,,,,,
0.0,7.776830617383922e-21,2.811336040496826,-0.36071333289146423,3.861350443725366e-19,-0.4809495806694031,-0.2747974991798401,5.417101917045326e-19,-0.4971470832824707,-0.432797908782959,0.0,2.989053726196289,-1.4712810516357422,-0.5752531439065933,15.0,0.0,2.9468536376953125,-1.212000846862793,-0.7670041918754578,22.25,0.0,2.8617382049560547,-0.8772611618041992,-0.7670041918754578,26.75,0.0,2.9060840606689453,-1.010298728942871,-0.7670041918754578,25.75,0.0,2.8009414672851562,-0.7524490356445312,-0.9587552398443222,20.5,0.0,2.6013851165771484,0.06258487701416016,-0.3835020959377289,14.25,0.0,2.4236440658569336,0.14197826385498047,-0.3835020959377289,15.0,0.0,3.1557083129882812,-1.659393310546875,0.0,15.25,0.0,2.9886960983276367,-0.7939338684082031,0.0,27.5,0.0,2.897500991821289,-0.5146265029907227,0.0,27.25,,,,,,,,,,,,,,,,,,,,,,,,,,,,,,,,,,,
0.0,3.2856366794210653e-20,2.7525084018707275,-0.5123045444488525,4.175804187563165e-19,-0.6073358654975891,-0.5151172876358032,5.266439240274918e-19,-0.6386066675186157,-0.5874821543693542,0.0,3.0333995819091797,-1.565694808959961,-0.7670041918754578,13.75,0.0,2.965092658996582,-1.1969804763793945,-0.7670041918754578,15.75,0.0,2.731204032897949,-0.8507966995239258,-0.9587552398443222,22.25,0.0,2.879619598388672,-0.9659528732299805,-0.7670041918754578,21.75,0.0,2.835988998413086,-0.8071660995483398,-0.9587552398443222,24.75,0.0,2.6088953018188477,-0.44274330139160156,-0.9587552398443222,14.5,0.0,2.4050474166870117,-0.038623809814453125,-0.3835020959377289,15.0,0.0,2.9872655868530273,-0.7731914520263672,0.0,23.75,0.0,2.9021501541137695,-0.5285739898681641,0.0,26.25,0.0,2.784848213195801,0.021457672119140625,0.0,27.25,,,,,,,,,,,,,,,,,,,,,,,,,,,,,,,,,,,
0.0,5.383459447557029e-20,2.66017746925354,-0.7213691473007202,4.3629372575410365e-19,-0.8359285593032837,-0.8045608997344971,5.036212128334565e-19,-0.9257277250289917,-0.7500965595245361,0.0,2.922534942626953,-1.6829967498779297,-0.9587552398443222,14.75,0.0,2.337813377380371,-1.135110855102539,-0.9587552398443222,16.0,0.0,2.6671886444091797,-1.370072364807129,-1.72575943171978,22.0,0.0,2.745509147644043,-1.3682842254638672,-1.5340083837509155,23.25,0.0,2.8553009033203125,-1.409769058227539,-1.5340083837509155,18.75,0.0,2.713322639465332,-0.8887052536010742,-0.7670041918754578,19.25,0.0,2.971172332763672,-0.834345817565918,0.0,22.75,0.0,2.900362014770508,-0.6029605865478516,0.0,25.75,0.0,2.788066864013672,0.054001808166503906,0.0,26.0,,,,,,,,,,,,,,,,,,,,,,,,,,,,,,,,,,,,,,,,
0.0,7.236687816617903e-20,2.5291354656219482,-0.8726208806037903,4.47767237838097e-19,-1.046161413192749,-0.9738987684249878,4.776251492288111e-19,-1.0960485935211182,-0.8088471293449402,0.0,2.322077751159668,-1.2763738632202148,-1.1505062878131866,25.5,0.0,2.3943185806274414,-1.3257265090942383,-1.1505062878131866,26.75,0.0,2.4358034133911133,-1.4215707778930664,-1.1505062878131866,21.25,0.0,2.622842788696289,-1.445174217224121,-1.1505062878131866,13.0,0.0,2.3485422134399414,-0.7749795913696289,-0.5752531439065933,20.0,0.0,2.2687911987304688,-0.45740604400634766,-0.5752531439065933,15.5,0.0,2.650022506713867,-0.9294748306274414,0.0,25.5,0.0,2.8492212295532227,-0.7942914962768555,0.0,25.5,0.0,2.9518604278564453,-0.8765459060668945,0.0,22.5,0.0,2.784132957458496,-0.06973743438720703,0.0,25.0,,,,,,,,,,,,,,,,,,,,,,,,,,,,,,,,,,,
0.0,9.134508975513629e-20,2.381006956100464,-0.9942181706428528,4.558844128878681e-19,-1.2477779388427734,-1.07064688205719,4.510881612023443e-19,-1.2228845357894897,-0.8027798533439636,0.0,2.319931983947754,-1.3175010681152344,-1.72575943171978,23.75,0.0,2.409696578979492,-1.3968944549560547,-0.19175104796886444,15.5,0.0,2.076387405395508,-0.9605884552001953,-0.9587552398443222,25.5,0.0,2.2537708282470703,-1.170516014099121,-0.9587552398443222,26.5,0.0,2.178668975830078,-0.9791851043701172,-0.9587552398443222,27.0,0.0,2.774477005004883,-0.06508827209472656,0.0,24.75,,,,,,,,,,,,,,,,,,,,,,,,,,,,,,,,,,,,,,,,,,,,,,,,,,,,,,,
0.0,1.0790843801862447e-19,2.207827091217041,-1.0666990280151367,4.555277946462812e-19,-1.5130338668823242,-1.0154365301132202,4.1991570472191856e-19,-1.4530725479125977,-0.6216128468513489,0.0,2.200484275817871,-1.4111995697021484,-1.9175104796886444,21.0,0.0,1.9894838333129883,-1.112222671508789,-1.342257335782051,20.75,0.0,2.109646797180176,-1.2592077255249023,-1.9175104796886444,26.0,0.0,2.149343490600586,-1.348257064819336,-1.9175104796886444,27.75,,,,,,,,,,,,,,,,,,,,,,,,,,,,,,,,,,,,,,,,,,,,,,,,,,,,,,,,,,,,,,,,,
0.0,1.1930189452895916e-19,2.0605273246765137,-1.1634106636047363,4.483372686777226e-19,-1.6250252723693848,-1.076499104499817,3.8774626295881917e-19,-1.4045201539993286,-0.6328771114349365,0.0,1.9294023513793945,-1.0657310485839844,-0.7670041918754578,23.5,0.0,2.321004867553711,-1.2631416320800781,0.3835020959377289,14.0,0.0,1.8575191497802734,-0.98419189453125,-0.7670041918754578,15.5,0.0,2.077460289001465,-1.0979175567626953,-1.1505062878131866,23.0,0.0,2.225160598754883,-1.1218786239624023,-1.1505062878131866,20.5,,,,,,,,,,,,,,,,,,,,,,,,,,,,,,,,,,,,,,,,,,,,,,,,,,,,,,,,,,,,
0.0,-0.00014695260324515402,2.9327521324157715,-0.23364666104316711,0.0010329006472602487,-0.12567351758480072,-0.02181277424097061,0.00046237779315561056,-0.17862144112586975,-0.013290945440530777,0.0,3.146052360534668,-1.306772232055664,-0.19175104796886444,16.75,0.0,3.3159255981445312,-1.050710678100586,-0.19175104796886444,19.0,0.0,3.422856330871582,-0.949859619140625,-0.19175104796886444,15.5,0.0,2.863168716430664,0.25391578674316406,-0.19175104796886444,25.75,0.0,2.7512311935424805,0.35440921783447266,-0.19175104796886444,15.25,0.0,2.833843231201172,0.30612945556640625,-0.19175104796886444,24.25,0.0,2.9665231704711914,0.2911090850830078,-0.19175104796886444,19.25,0.0,2.9271841049194336,-0.05078315734863281,0.0,28.5,0.0,2.7616024017333984,0.2110004425048828,0.0,18.25,0.0,2.843499183654785,0.12159347534179688,0.0,26.5,,,,,,,,,,,,,,,,,,,,,,,,,,,,,,,,,,,
0.0,-3.272235335316509e-05,2.9225025177001953,-0.2530900835990906,0.001086403732188046,-0.15186858177185059,-0.05057850480079651,0.0004658539255615324,-0.19820889830589294,-0.034789733588695526,0.0,3.2547712326049805,-1.4791488647460938,-0.19175104796886444,16.25,0.0,3.3942461013793945,-1.5950202941894531,-0.19175104796886444,12.75,0.0,3.061652183532715,-1.226663589477539,-0.19175104796886444,20.25,0.0,3.180384635925293,-1.3074874877929688,-0.19175104796886444,19.0,0.0,2.956509590148926,-0.3933906555175781,-0.19175104796886444,21.75,0.0,2.834200859069824,0.04363059997558594,-0.19175104796886444,29.0,0.0,2.7430057525634766,0.16236305236816406,-0.19175104796886444,24.75,0.0,2.789139747619629,0.1341104507446289,-0.19175104796886444,30.5,0.0,2.8982162475585938,0.023245811462402344,0.0,30.25,0.0,2.7616024017333984,0.14197826385498047,0.0,22.0,0.0,2.823472023010254,0.13625621795654297,0.0,29.5,,,,,,,,,,,,,,,,,,,,,,,,,,,,,,
0.0,5.94221091887448e-05,2.908663272857666,-0.3158346116542816,0.0011076352093368769,-0.19584301114082336,-0.14936232566833496,0.000451250234618783,-0.24592021107673645,-0.1113775372505188,0.0,2.9278993606567383,-1.381516456604004,-0.19175104796886444,21.75,0.0,3.153204917907715,-1.4551877975463867,-0.19175104796886444,17.0,0.0,3.0527114868164062,-1.3360977172851562,-0.19175104796886444,26.0,0.0,3.1038522720336914,-1.3571977615356445,-0.19175104796886444,23.25,0.0,2.760171890258789,0.05257129669189453,-0.3835020959377289,22.75,0.0,2.8492212295532227,-0.06258487701416016,-0.3835020959377289,21.0,0.0,2.6972293853759766,0.1691579818725586,-0.3835020959377289,19.5,,,,,,,,,,,,,,,,,,,,,,,,,,,,,,,,,,,,,,,,,,,,,,,,,,
0.0,0.00013071627472527325,2.863652229309082,-0.2805989980697632,0.0011018423829227686,-0.2767172157764435,-0.06953383982181549,0.0004226271412335336,-0.3254346549510956,-0.03172474354505539,0.0,2.924680709838867,-1.6797780990600586,-0.5752531439065933,20.75,0.0,2.9747486114501953,-1.4269351959228516,-0.7670041918754578,23.75,0.0,3.1070709228515625,-1.6164779663085938,-0.5752531439065933,14.0,0.0,2.9532909393310547,-1.2449026107788086,-0.3835020959377289,22.25,0.0,2.6096105575561523,0.04684925079345703,-0.3835020959377289,17.75,0.0,2.665400505065918,0.06008148193359375,-0.3835020959377289,28.0,0.0,2.6797056198120117,0.0768899917602539,-0.5752531439065933,28.75,0.0,2.789139747619629,0.019669532775878906,-0.3835020959377289,21.75,,,,,,,,,,,,,,,,,,,,,,,,,,,,,,,,,,,,,,,,,,,,,
0.0,0.00018069703946821392,2.821129322052002,-0.29463061690330505,0.0010704088490456343,-0.34276819229125977,-0.08316951245069504,0.0003815227246377617,-0.3728639781475067,-0.038421157747507095,0.0,3.0355453491210938,-1.1379718780517578,-0.5752531439065933,13.5,0.0,2.913951873779297,-0.789642333984375,-0.3835020959377289,16.75,0.0,2.800583839416504,-0.4506111145019531,-0.3835020959377289,22.5,0.0,2.72369384765625,-0.1913309097290039,-0.3835020959377289,25.0,0.0,2.6525259017944336,0.0711679458618164,-0.3835020959377289,23.5,0.0,2.5652647018432617,0.15485286712646484,-0.3835020959377289,16.25,0.0,3.0820369720458984,-1.3579130172729492,0.0,21.25,0.0,3.311634063720703,-1.1980533599853516,0.0,14.5,,,,,,,,,,,,,,,,,,,,,,,,,,,,,,,,,,,,,,,,,,,,,
0.0,0.00021544023184105754,2.7683608531951904,-0.36489903926849365,0.0010179081000387669,-0.4336625337600708,-0.1894841492176056,0.0003301637771073729,-0.4523364305496216,-0.11919547617435455,0.0,2.845644950866699,-1.1136531829833984,-0.9587552398443222,22.25,0.0,2.979755401611328,-1.1265277862548828,-0.9587552398443222,16.75,0.0,2.7794837951660156,-0.7038116455078125,-0.19175104796886444,24.75,0.0,2.6907920837402344,-0.3000497817993164,-0.19175104796886444,28.0,0.0,2.624988555908203,-0.12552738189697266,-0.5752531439065933,28.0,0.0,2.5620460510253906,-0.048279762268066406,-0.5752531439065933,22.0,0.0,3.0519962310791016,-1.4380216598510742,0.0,21.0,0.0,2.9811859130859375,-1.3393163681030273,0.0,24.25,0.0,2.9572248458862305,-0.9090900421142578,0.0,27.5,0.0,3.3109188079833984,-1.2091398239135742,0.0,14.75,,,,,,,,,,,,,,,,,,,,,,,,,,,,,,,,,,,
0.0,0.0002256564039271325,2.7019641399383545,-0.5268354415893555,0.0009313506889156997,-0.5792121291160583,-0.4329349994659424,0.0002608136273920536,-0.6138262152671814,-0.29883456230163574,0.0,2.8731822967529297,-1.3614892959594727,-1.342257335782051,18.75,0.0,2.9926300048828125,-1.4834403991699219,-0.19175104796886444,12.5,0.0,2.799868583679199,-1.204848289489746,-0.9587552398443222,25.0,0.0,2.7272701263427734,-0.9924173355102539,-0.7670041918754578,27.5,0.0,2.6428699493408203,-0.7560253143310547,-0.3835020959377289,27.75,0.0,2.5888681411743164,-0.33724308013916016,-0.7670041918754578,26.75,0.0,2.534151077270508,-0.19061565399169922,-0.7670041918754578,22.0,0.0,2.98154354095459,-1.3582706451416016,0.0,24.5,0.0,3.108501434326172,-1.3142824172973633,0.0,20.75,0.0,3.291964530944824,-1.2545585632324219,0.0,15.0,,,,,,,,,,,,,,,,,,,,,,,,,,,,,,,,,,,
0.0,0.0002209220256190747,2.605207681655884,-0.6924096345901489,0.0008286507800221443,-0.7727229595184326,-0.6451210975646973,0.00018531746172811836,-0.8198311924934387,-0.4266084134578705,0.0,2.756953239440918,-1.3661384582519531,-0.9587552398443222,19.5,0.0,2.8728246688842773,-1.5009641647338867,-0.19175104796886444,19.75,0.0,2.9507875442504883,-1.5950202941894531,-0.19175104796886444,15.5,0.0,2.1675825119018555,-0.8955001831054688,-1.72575943171978,22.75,0.0,2.536654472351074,-0.9641647338867188,-1.1505062878131866,27.25,0.0,2.637147903442383,-1.159071922302246,-0.9587552398443222,22.5,0.0,2.478361129760742,-0.5729198455810547,-0.7670041918754578,29.5,0.0,2.42006778717041,-0.43845176696777344,-0.7670041918754578,28.75,0.0,1.7942190170288086,-1.28173828125,0.0,21.75,0.0,2.9783248901367188,-1.3475418090820312,0.0,22.25,0.0,2.94649600982666,-0.9351968765258789,0.0,20.25,,,,,,,,,,,,,,,,,,,,,,,,,,,,,,
0.0,0.00022534499294124544,2.5048210620880127,-0.8177600502967834,0.0007470451528206468,-0.9156637191772461,-0.7760658860206604,0.00012713269097730517,-0.9109455347061157,-0.4879037141799927,0.0,2.6657581329345703,-1.476287841796875,0.19175104796886444,19.75,0.0,2.4973154067993164,-1.233816146850586,-0.9587552398443222,21.25,0.0,2.60317325592041,-1.392960548400879,-0.9587552398443222,19.75,0.0,2.801656723022461,-1.4941692352294922,0.19175104796886444,15.0,0.0,2.1615028381347656,-0.8189678192138672,-1.5340083837509155,26.0,0.0,2.270221710205078,-0.5965232849121094,-0.9587552398443222,27.5,0.0,2.4154186248779297,-0.4405975341796875,-0.9587552398443222,22.0,0.0,1.8635988235473633,-1.1991262435913086,0.0,26.25,0.0,2.965092658996582,-1.338958740234375,0.0,22.0,0.0,2.9211044311523438,-0.9763240814208984,0.0,21.0,,,,,,,,,,,,,,,,,,,,,,,,,,,,,,,,,,,
0.0,0.00021920085418969393,2.429710626602173,-1.022886037826538,0.0006628285045735538,-0.9477061033248901,-1.0783663988113403,7.316013216041028e-05,-0.8048995137214661,-0.7363595962524414,0.0,2.7208328247070312,-1.522064208984375,0.3835020959377289,19.75,0.0,2.838134765625,-1.5617609024047852,0.3835020959377289,19.5,0.0,2.516627311706543,-1.2180805206298828,0.19175104796886444,16.5,0.0,2.6274919509887695,-1.3818740844726562,0.19175104796886444,18.0,0.0,2.955794334411621,-1.5767812728881836,0.3835020959377289,15.75,0.0,2.0341873168945312,-0.8590221405029297,-0.7670041918754578,25.75,0.0,2.3238658905029297,-0.9666681289672852,-1.1505062878131866,18.0,0.0,2.164006233215332,-0.7721185684204102,-0.7670041918754578,23.0,0.0,1.9272565841674805,-1.1458396911621094,0.0,26.25,0.0,2.919316291809082,-1.409769058227539,0.0,22.25,0.0,2.961874008178711,-1.5492439270019531,0.0,18.5,0.0,2.884984016418457,-1.1200904846191406,0.0,21.25,0.0,2.7923583984375,-0.7259845733642578,0.0,23.0,,,,,,,,,,,,,,,,,,,,
0.0,0.00021078340068925172,2.334010601043701,-1.154747486114502,0.0005764801753684878,-1.0204031467437744,-1.1950318813323975,1.888740371214226e-05,-0.7900134325027466,-0.7802068591117859,0.0,2.158641815185547,-1.2316703796386719,-0.5752531439065933,14.5,0.0,2.8874874114990234,-1.5878677368164062,-0.19175104796886444,15.75,0.0,2.9397010803222656,-1.6862154006958008,-0.19175104796886444,14.0,0.0,2.0313262939453125,-1.0274648666381836,-0.5752531439065933,22.25,0.0,2.626776695251465,-1.3003349304199219,-0.3835020959377289,12.25,0.0,2.799510955810547,-1.4183521270751953,-0.19175104796886444,13.0,0.0,1.8954277038574219,-0.7721185684204102,-0.3835020959377289,13.25,0.0,1.9598007202148438,-0.8744001388549805,-0.19175104796886444,25.0,0.0,2.8148889541625977,-1.8328428268432617,0.0,16.25,0.0,2.9135942459106445,-1.3736486434936523,0.0,19.75,0.0,2.8624534606933594,-1.0986328125,0.0,20.5,0.0,2.7608871459960938,-0.8254051208496094,0.0,21.75,0.0,2.691507339477539,-0.49173831939697266,0.0,27.0,,,,,,,,,,,,,,,,,,,,
0.0,0.00019888882525265217,2.201040744781494,-1.3042677640914917,0.00048711433191783726,-1.1673845052719116,-1.3000949621200562,-3.58581637556199e-05,-0.8838597536087036,-0.7836203575134277,0.0,1.7080307006835938,-1.2992620468139648,-0.3835020959377289,27.5,0.0,1.7981529235839844,-1.415848731994629,-0.3835020959377289,22.25,0.0,1.7480850219726562,-1.1658668518066406,-0.3835020959377289,14.75,0.0,2.1167993545532227,-1.4094114303588867,-0.9587552398443222,19.75,0.0,2.7115345001220703,-1.7992258071899414,-0.3835020959377289,12.0,0.0,2.3717880249023438,-1.3672113418579102,-0.3835020959377289,16.5,0.0,2.5566816329956055,-1.3436079025268555,-0.3835020959377289,17.0,0.0,2.6836395263671875,-1.4255046844482422,-0.3835020959377289,14.0,0.0,3.0101537704467773,-1.4880895614624023,0.0,14.25,0.0,2.8481483459472656,-1.1029243469238281,0.0,20.0,0.0,2.941131591796875,-1.2781620025634766,0.0,18.5,0.0,2.7594566345214844,-0.8425712585449219,0.0,21.75,0.0,2.6786327362060547,-0.641942024230957,0.0,25.0,,,,,,,,,,,,,,,,,,,,
0.0,0.0002108502376358956,2.0810863971710205,-1.3720197677612305,0.00043634898611344397,-1.249794602394104,-1.2378735542297363,-6.44863466732204e-05,-0.8915594816207886,-0.6374688148498535,0.0,1.782059669494629,-1.1175870895385742,-0.5752531439065933,19.25,0.0,1.845717430114746,-1.088261604309082,-0.5752531439065933,26.25,0.0,1.9576549530029297,-1.110076904296875,-0.5752531439065933,20.5,0.0,2.171158790588379,-1.1644363403320312,-0.9587552398443222,13.75,0.0,2.9886960983276367,-1.520991325378418,0.0,14.0,0.0,2.852797508239746,-1.090407371520996,0.0,20.0,0.0,2.930760383605957,-1.2989044189453125,0.0,18.75,0.0,2.742648124694824,-0.8854866027832031,0.0,22.0,0.0,2.671480178833008,-0.6569623947143555,0.0,25.0,,,,,,,,,,,,,,,,,,,,,,,,,,,,,,,,,,,,,,,,
0.0,0.0002114027738571167,1.9768003225326538,-1.4270459413528442,0.00037640900700353086,-1.2679814100265503,-1.1829700469970703,-9.596513700671494e-05,-0.8057495355606079,-0.5423131585121155,0.0,1.690506935119629,-1.0203123092651367,-0.5752531439065933,13.0,0.0,1.7809867858886719,-1.0639429092407227,-0.5752531439065933,19.0,0.0,1.868605613708496,-1.0718107223510742,0.19175104796886444,26.25,0.0,2.0270347595214844,-1.0006427764892578,-0.3835020959377289,21.75,0.0,2.8814077377319336,-1.4498233795166016,0.0,17.25,0.0,2.982616424560547,-1.5485286712646484,0.0,12.5,,,,,,,,,,,,,,,,,,,,,,,,,,,,,,,,,,,,,,,,,,,,,,,,,,,,,,,
0.0,0.00020164471061434597,1.8930383920669556,-1.440659761428833,0.0003083406190853566,-1.2424777746200562,-1.0435173511505127,-0.00013051046698819846,-0.6968664526939392,-0.36905568838119507,0.0,1.6493797302246094,-1.0360479354858398,-0.9587552398443222,14.75,0.0,1.7752647399902344,-1.066446304321289,-0.19175104796886444,19.5,0.0,1.8829107284545898,-1.0478496551513672,-0.3835020959377289,26.0,0.0,2.0112991333007812,-0.9824037551879883,-0.3835020959377289,20.5,0.0,2.5681257247924805,-1.0042190551757812,0.0,19.0,0.0,2.6782751083374023,-1.0879039764404297,0.0,19.25,,,,,,,,,,,,,,,,,,,,,,,,,,,,,,,,,,,,,,,,,,,,,,,,,,,,,,,
0.0,0.0001753147371346131,1.8113619089126587,-1.4315557479858398,0.0002247483207611367,-1.2027231454849243,-0.8815761804580688,-0.00017206696793437004,-0.5834701061248779,-0.19658398628234863,0.0,1.6622543334960938,-1.0721683502197266,-0.3835020959377289,20.75,0.0,1.5331506729125977,-0.9773969650268555,-0.5752531439065933,12.25,0.0,1.6139745712280273,-1.0131597518920898,-0.3835020959377289,19.75,0.0,1.7806291580200195,-1.0936260223388672,-0.3835020959377289,22.75,0.0,1.9168853759765625,-1.1522769927978516,-0.5752531439065933,15.0,0.0,2.4847984313964844,-1.2134313583374023,0.0,13.25,0.0,2.833843231201172,-1.4984607696533203,0.0,14.0,,,,,,,,,,,,,,,,,,,,,,,,,,,,,,,,,,,,,,,,,,,,,,,,,,
0.0,6.43289104118594e-06,2.9642574787139893,-0.577984631061554,8.052758857957087e-06,-0.32892394065856934,-0.4447244703769684,-2.831624442478642e-06,-0.262340784072876,-0.16239860653877258,0.0,2.887845039367676,-1.3954639434814453,-0.3835020959377289,18.0,0.0,2.9561519622802734,-1.4891624450683594,-0.19175104796886444,20.75,0.0,3.1507015228271484,-1.3314485549926758,-0.19175104796886444,15.75,0.0,3.383517265319824,-1.1401176452636719,-0.19175104796886444,13.0,0.0,2.710103988647461,0.1977682113647461,-0.5752531439065933,20.25,0.0,2.7565956115722656,0.1895427703857422,-0.5752531439065933,24.75,0.0,2.811312675476074,0.2002716064453125,-0.5752531439065933,22.0,0.0,3.1821727752685547,-1.2334585189819336,0.0,23.5,0.0,3.471493721008301,-1.4852285385131836,0.0,12.75,0.0,3.131747245788574,-1.0993480682373047,0.0,26.0,0.0,3.8334131240844727,-1.2377500534057617,0.0,12.25,0.0,3.0434131622314453,-0.18453598022460938,0.0,24.5,0.0,2.9157400131225586,0.02002716064453125,0.0,28.0,,,,,,,,,,,,,,,,,,,,
0.0,5.732186764362268e-06,2.912259578704834,-0.5620019435882568,5.876518116565421e-06,-0.4093143045902252,-0.34038156270980835,-4.000703938800143e-06,-0.3572860360145569,-0.0429089218378067,0.0,2.737283706665039,-1.8117427825927734,-0.3835020959377289,17.5,0.0,3.14176082611084,-1.348257064819336,-0.3835020959377289,17.0,0.0,2.916097640991211,-1.0410547256469727,-0.3835020959377289,21.25,0.0,2.8406381607055664,-0.6051063537597656,-0.3835020959377289,18.75,0.0,2.6879310607910156,0.0400543212890625,-0.7670041918754578,23.5,0.0,2.567768096923828,0.14090538024902344,-0.7670041918754578,15.5,0.0,2.6389360427856445,0.10478496551513672,-0.7670041918754578,23.0,0.0,3.160715103149414,-1.278519630432129,0.0,24.25,0.0,3.1256675720214844,-1.129746437072754,0.0,25.75,0.0,3.0562877655029297,-0.3154277801513672,0.0,25.25,0.0,2.921462059020996,-0.007867813110351562,0.0,28.25,,,,,,,,,,,,,,,,,,,,,,,,,,,,,,
0.0,4.7508301577181555e-06,2.8514907360076904,-0.5630770325660706,3.5014243167097447e-06,-0.5161941051483154,-0.2710912227630615,-5.224690085015027e-06,-0.48079824447631836,0.037677913904190063,0.0,3.0469894409179688,-1.3697147369384766,-0.7670041918754578,15.25,0.0,2.9736757278442383,-0.9459257125854492,-0.3835020959377289,25.25,0.0,3.0405521392822266,-0.995635986328125,-0.3835020959377289,20.25,0.0,2.8824806213378906,-0.811457633972168,-0.5752531439065933,23.0,0.0,2.7065277099609375,-0.17452239990234375,-0.9587552398443222,21.25,0.0,2.508401870727539,0.14698505401611328,-1.1505062878131866,20.5,0.0,2.557039260864258,0.11658668518066406,-0.7670041918754578,23.5,0.0,3.4929513931274414,-1.4019012451171875,0.0,12.5,,,,,,,,,,,,,,,,,,,,,,,,,,,,,,,,,,,,,,,,,,,,,
0.0,3.6825717870669905e-06,2.7729296684265137,-0.558451771736145,1.1967865702899871e-06,-0.6534663438796997,-0.1942395567893982,-6.334232239169069e-06,-0.6313263177871704,0.1208830326795578,0.0,3.0623674392700195,-1.351475715637207,-0.3835020959377289,14.0,0.0,2.8388500213623047,-0.9999275207519531,-0.7670041918754578,25.25,0.0,2.8842687606811523,-1.062154769897461,-0.7670041918754578,23.75,0.0,2.9761791229248047,-1.1036396026611328,-0.7670041918754578,18.5,0.0,2.718329429626465,-0.5357265472412109,-0.7670041918754578,18.75,0.0,2.492666244506836,0.06794929504394531,-0.9587552398443222,23.75,0.0,2.391815185546875,0.1087188720703125,-1.1505062878131866,16.5,0.0,2.44903564453125,0.12195110321044922,-1.1505062878131866,24.5,0.0,3.2444000244140625,-1.4355182647705078,0.0,14.75,0.0,3.597378730773926,-1.2145042419433594,0.0,12.0,,,,,,,,,,,,,,,,,,,,,,,,,,,,,,,,,,,
0.0,2.7419396246841643e-06,2.6763274669647217,-0.6429500579833984,-7.463306133104197e-07,-0.8239461779594421,-0.2820292115211487,-7.151767931645736e-06,-0.7983378171920776,0.051308415830135345,0.0,2.7794837951660156,-1.2874603271484375,-0.9587552398443222,25.75,0.0,2.828836441040039,-1.4297962188720703,-0.9587552398443222,19.75,0.0,3.0591487884521484,-1.3968944549560547,-0.9587552398443222,13.5,0.0,2.7251243591308594,-1.1937618255615234,-1.1505062878131866,27.0,0.0,2.6700496673583984,-0.928044319152832,-1.1505062878131866,23.75,0.0,2.5484561920166016,-0.536799430847168,-0.7670041918754578,20.75,0.0,2.410769462585449,-0.01895427703857422,-0.9587552398443222,20.0,0.0,2.3020505905151367,0.14913082122802734,-0.9587552398443222,16.25,,,,,,,,,,,,,,,,,,,,,,,,,,,,,,,,,,,,,,,,,,,,,
0.0,1.926730874401983e-06,2.5434861183166504,-0.771977424621582,-2.3610193693457404e-06,-1.029822826385498,-0.43884849548339844,-7.718204869888723e-06,-0.9727994799613953,-0.07143566757440567,0.0,2.658247947692871,-1.525282859802246,-1.5340083837509155,20.25,0.0,2.768397331237793,-1.5835762023925781,0.19175104796886444,17.5,0.0,2.101421356201172,-1.0814666748046875,-1.1505062878131866,18.75,0.0,2.4547576904296875,-1.1583566665649414,-1.5340083837509155,26.25,0.0,2.5777816772460938,-1.3239383697509766,-1.5340083837509155,23.0,0.0,2.373218536376953,-0.9959936141967773,-0.9587552398443222,27.75,0.0,2.3338794708251953,-0.8397102355957031,-1.1505062878131866,25.5,0.0,2.218008041381836,0.1176595687866211,-0.7670041918754578,17.75,0.0,2.916097640991211,-1.1107921600341797,0.0,22.5,0.0,3.5823583602905273,-1.2799501419067383,0.0,12.75,,,,,,,,,,,,,,,,,,,,,,,,,,,,,,,,,,,
0.0,1.3124947599862935e-06,2.3948707580566406,-0.8949769735336304,-3.5597122405306436e-06,-1.2377614974975586,-0.5651738047599792,-7.989943696884438e-06,-1.1281801462173462,-0.15342897176742554,0.0,2.24912166595459,-1.2652873992919922,-0.5752531439065933,24.0,0.0,2.32851505279541,-1.3850927352905273,-2.684514671564102,19.5,0.0,2.432584762573242,-1.518845558166504,-2.684514671564102,17.0,0.0,2.549886703491211,-1.6311407089233398,-2.684514671564102,14.25,0.0,2.1543502807617188,-1.074671745300293,-0.5752531439065933,21.5,0.0,2.0853281021118164,-0.61798095703125,-0.7670041918754578,21.0,0.0,2.9053688049316406,-1.0972023010253906,0.0,21.25,0.0,2.9633045196533203,-1.3107061386108398,0.0,20.75,,,,,,,,,,,,,,,,,,,,,,,,,,,,,,,,,,,,,,,,,,,,,
0.0,6.959308507248352e-07,2.22733998298645,-1.0601304769515991,-4.655137672671117e-06,-1.4104336500167847,-0.7780828475952148,-8.18136686575599e-06,-1.1762800216674805,-0.33233118057250977,0.0,1.9737482070922852,-1.2928247451782227,-0.19175104796886444,26.5,0.0,2.0345449447631836,-1.4609098434448242,-0.3835020959377289,24.25,0.0,2.1936893463134766,-1.485586166381836,-2.684514671564102,17.25,0.0,2.373218536376953,-1.5388727188110352,-0.5752531439065933,13.5,0.0,1.8814802169799805,-0.9219646453857422,-1.5340083837509155,16.75,0.0,1.943349838256836,-1.0099411010742188,-0.19175104796886444,26.75,0.0,2.9439926147460938,-1.3375282287597656,0.0,21.0,,,,,,,,,,,,,,,,,,,,,,,,,,,,,,,,,,,,,,,,,,,,,,,,,,
0.0,-6.817935799263708e-11,2.986264705657959,-0.6968433856964111,-1.227311724472102e-10,-0.19438686966896057,-0.17135939002037048,-1.4560295677479296e-11,-0.20673272013664246,0.11356037855148315,0.0,3.1832456588745117,-2.009868621826172,-0.19175104796886444,12.75,0.0,3.2662153244018555,-1.3332366943359375,-0.19175104796886444,17.0,0.0,3.1685829162597656,-1.1415481567382812,-0.19175104796886444,22.5,0.0,3.221869468688965,-1.1612176895141602,-0.19175104796886444,22.5,0.0,3.1288862228393555,-0.4037618637084961,-0.19175104796886444,17.5,0.0,2.9550790786743164,0.08404254913330078,-0.19175104796886444,18.25,0.0,2.864956855773926,0.21851062774658203,0.19175104796886444,14.5,0.0,3.1911134719848633,-1.5467405319213867,0.0,18.25,0.0,3.3495426177978516,-1.7724037170410156,0.0,14.5,0.0,3.1453371047973633,-1.2373924255371094,0.0,23.25,0.0,3.1017065048217773,-1.0657310485839844,0.0,29.5,0.0,3.0570030212402344,-0.7120370864868164,0.0,28.0,0.0,2.904653549194336,0.04363059997558594,0.0,29.0,0.0,2.759099006652832,0.194549560546875,0.0,20.0,0.0,2.8291940689086914,0.125885009765625,0.0,27.75,,,,,,,,,,
0.0,-5.906475308847803e-11,2.967738151550293,-0.7046809792518616,-9.446524118494892e-11,-0.2259438931941986,-0.1408008337020874,5.337470049271431e-12,-0.23337911069393158,0.13437561690807343,0.0,3.0705928802490234,-1.4480352401733398,-0.19175104796886444,17.25,0.0,2.9751062393188477,-1.1873245239257812,-0.3835020959377289,21.75,0.0,2.979755401611328,-1.3232231140136719,-0.3835020959377289,22.5,0.0,3.3255815505981445,-1.2695789337158203,-0.19175104796886444,14.25,0.0,2.879977226257324,-0.0940561294555664,-0.19175104796886444,15.75,0.0,2.724766731262207,0.05829334259033203,-0.19175104796886444,21.25,0.0,2.7108192443847656,0.11301040649414062,-0.19175104796886444,17.75,0.0,3.2236576080322266,-1.4591217041015625,0.0,19.0,0.0,3.3663511276245117,-1.7330646514892578,0.0,14.5,0.0,3.651738166809082,-1.7001628875732422,0.0,15.75,0.0,3.1467676162719727,-1.2531280517578125,0.0,23.75,0.0,3.219723701477051,-1.4573335647583008,0.0,19.0,0.0,3.0984878540039062,-1.0943412780761719,0.0,29.5,0.0,3.047347068786621,-0.7320642471313477,0.0,27.75,0.0,2.902865409851074,-0.03826618194580078,0.0,29.0,0.0,2.7490854263305664,0.2199411392211914,0.0,21.0,0.0,2.823472023010254,0.0997781753540039,0.0,28.0
0.0,-5.242611553213372e-11,2.9480714797973633,-0.6527851819992065,-7.16326442606885e-11,-0.24900895357131958,-0.009389825165271759,2.0283850987734553e-11,-0.24857845902442932,0.2390662431716919,0.0,3.014802932739258,-1.455545425415039,-0.19175104796886444,19.25,0.0,2.9969215393066406,-1.2295246124267578,-0.5752531439065933,24.0,0.0,2.962946891784668,-1.0120868682861328,-0.3835020959377289,25.0,0.0,2.7594566345214844,0.060439109802246094,-0.19175104796886444,30.0,0.0,2.826690673828125,0.0035762786865234375,-0.3835020959377289,26.75,0.0,2.724766731262207,0.1251697540283203,-0.19175104796886444,25.5,0.0,3.588438034057617,-1.8306970596313477,0.0,15.5,0.0,3.304123878479004,-1.2928247451782227,0.0,17.25,0.0,3.0977725982666016,-1.0832548141479492,0.0,27.5,0.0,3.1810998916625977,-1.1565685272216797,0.0,21.5,0.0,3.0126571655273438,-0.6841421127319336,0.0,26.0,,,,,,,,,,,,,,,,,,,,,,,,,,,,,,
0.0,-4.515186835529761e-11,2.923611879348755,-0.6181331276893616,-4.974624184805876e-11,-0.2657458782196045,0.0740593671798706,3.3525713455384576e-11,-0.239286407828331,0.28908997774124146,0.0,2.9883384704589844,-1.5349388122558594,-0.3835020959377289,14.25,0.0,2.8238296508789062,-1.209855079650879,-0.3835020959377289,17.75,0.0,3.0308961868286133,-1.2509822845458984,-0.3835020959377289,19.0,0.0,2.748727798461914,-0.10192394256591797,-0.19175104796886444,29.75,0.0,2.72369384765625,-0.05364418029785156,-0.19175104796886444,25.25,0.0,2.7751922607421875,-0.07867813110351562,-0.19175104796886444,26.0,0.0,3.588438034057617,-1.8306970596313477,0.0,15.75,0.0,3.1228065490722656,-1.2763738632202148,0.0,22.5,0.0,3.288388252258301,-1.3092756271362305,0.0,17.25,0.0,3.0755996704101562,-1.129746437072754,0.0,27.25,0.0,2.992987632751465,-0.8382797241210938,0.0,27.0,0.0,2.789139747619629,-0.0021457672119140625,0.0,31.25,0.0,2.857804298400879,0.00286102294921875,0.0,30.75,,,,,,,,,,,,,,,,,,,,
0.0,-3.765528860943945e-11,2.8937487602233887,-0.5621507167816162,-2.9365315734608544e-11,-0.28847572207450867,0.18467220664024353,4.4879704119704655e-11,-0.23970940709114075,0.35864654183387756,0.0,2.943277359008789,-1.1229515075683594,-0.3835020959377289,18.5,0.0,2.88999080657959,-0.9784698486328125,-0.19175104796886444,25.0,0.0,2.877473831176758,-0.630497932434082,0.19175104796886444,25.0,0.0,2.762317657470703,-0.2624988555908203,-0.5752531439065933,22.5,0.0,2.570986747741699,0.17058849334716797,-0.5752531439065933,15.5,0.0,2.626776695251465,0.1659393310546875,-0.5752531439065933,23.0,0.0,3.359198570251465,-1.8188953399658203,0.0,14.0,0.0,3.497600555419922,-1.9984245300292969,0.0,14.5,0.0,3.126382827758789,-1.239180564880371,0.0,20.25,,,,,,,,,,,,,,,,,,,,,,,,,,,,,,,,,,,,,,,,
