tid,posx,posy,posz,velx,vely,velz,accx,accy,accz,pointx1,pointy1,pointz1,doppler1,snr1,pointx2,pointy2,pointz2,doppler2,snr2,pointx3,pointy3,pointz3,doppler3,snr3,pointx4,pointy4,pointz4,doppler4,snr4,pointx5,pointy5,pointz5,doppler5,snr5,pointx6,pointy6,pointz6,doppler6,snr6,pointx7,pointy7,pointz7,doppler7,snr7,pointx8,pointy8,pointz8,doppler8,snr8,pointx9,pointy9,pointz9,doppler9,snr9,pointx10,pointy10,pointz10,doppler10,snr10,pointx11,pointy11,pointz11,doppler11,snr11,pointx12,pointy12,pointz12,doppler12,snr12,pointx13,pointy13,pointz13,doppler13,snr13,pointx14,pointy14,pointz14,doppler14,snr14,pointx15,pointy15,pointz15,doppler15,snr15,pointx16,pointy16,pointz16,doppler16,snr16
0.0,-0.5451575517654419,3.0230143070220947,8.146063379399493e-09,-0.16961126029491425,-0.2657773196697235,8.004624163504559e-08,-0.04633055627346039,-0.2873404920101166,8.523361572088106e-08,0.0,3.2247304916381836,-1.003861427307129,-0.19175104796886444,17.75,0.0,3.146052360534668,-0.8404254913330078,-0.19175104796886444,23.75,0.0,3.0437707901000977,-0.5575418472290039,-0.19175104796886444,24.0,0.0,2.904653549194336,-0.1494884490966797,-0.5752531439065933,25.0,0.0,2.7648210525512695,0.07152557373046875,-0.5752531439065933,16.5,0.0,2.8302669525146484,-0.01609325408935547,-0.5752531439065933,24.5,0.0,3.0956268310546875,1.5385150909423828,-0.3835020959377289,14.25,0.0,3.2132863998413086,1.559615135192871,-0.3835020959377289,13.75,0.0,3.279447555541992,-0.9047985076904297,0.0,24.75,0.0,3.395676612854004,-0.9777545928955078,0.0,18.5,,,,,,,,,,,,,,,,,,,,,,,,,,,,,,
0.0,-0.51453697681427,2.9990313053131104,1.1945264333235173e-08,-0.08840683102607727,-0.2978489100933075,8.236789739157757e-08,0.029963061213493347,-0.3063308000564575,8.114339777876012e-08,0.0,3.161787986755371,-1.3225078582763672,-0.19175104796886444,19.0,0.0,3.2390356063842773,-1.4004707336425781,-0.19175104796886444,15.25,0.0,3.136754035949707,-1.1458396911621094,-0.3835020959377289,21.25,0.0,3.0351877212524414,-0.49173831939697266,-0.3835020959377289,18.25,0.0,2.8181076049804688,0.054717063903808594,-0.3835020959377289,24.75,0.0,2.7254819869995117,0.18489360809326172,-0.3835020959377289,23.25,0.0,2.7562379837036133,0.14984607696533203,-0.3835020959377289,27.75,0.0,3.2587051391601562,-0.9688138961791992,0.0,23.75,0.0,3.3931732177734375,-0.9530782699584961,0.0,18.25,0.0,2.849578857421875,0.07617473602294922,0.0,27.75,0.0,2.9010772705078125,0.017523765563964844,0.0,29.5,0.0,2.765178680419922,0.1627206802368164,0.0,19.25,,,,,,,,,,,,,,,,,,,,
0.0,-0.5304872393608093,2.948741912841797,1.4710805906759106e-08,-0.08657617121934891,-0.4096469283103943,8.23194596932808e-08,0.04277535900473595,-0.44691532850265503,7.564560178252577e-08,0.0,3.2483339309692383,-1.4830827713012695,-0.19175104796886444,13.5,0.0,3.1818151473999023,-1.328587532043457,-0.3835020959377289,15.25,0.0,3.0187368392944336,-0.7377862930297852,-0.3835020959377289,17.0,0.0,3.154277801513672,-0.9094476699829102,-0.3835020959377289,15.5,0.0,2.7118921279907227,-0.09584426879882812,-0.9587552398443222,22.25,0.0,2.8281211853027344,-0.2607107162475586,-0.7670041918754578,17.75,0.0,2.6750564575195312,0.020384788513183594,-0.9587552398443222,20.75,0.0,3.279447555541992,-0.9069442749023438,0.0,24.0,0.0,3.3963918685913086,-0.9255409240722656,0.0,18.75,0.0,2.735137939453125,0.07903575897216797,0.0,23.0,0.0,2.816319465637207,0.02288818359375,0.0,29.0,0.0,2.896428108215332,-0.029325485229492188,0.0,29.75,,,,,,,,,,,,,,,,,,,,
0.0,-0.5145266652107239,2.8837361335754395,1.666376192588359e-08,-0.023962698876857758,-0.5486475229263306,8.052057864915696e-08,0.1112712025642395,-0.6156641840934753,6.92756145781459e-08,0.0,3.0602216720581055,-1.4172792434692383,-0.19175104796886444,15.0,0.0,2.953648567199707,-1.291036605834961,-0.7670041918754578,19.25,0.0,2.987980842590332,-0.823974609375,-0.7670041918754578,22.75,0.0,2.9550790786743164,-0.2224445343017578,-0.3835020959377289,21.75,0.0,2.624630928039551,-0.03898143768310547,-1.342257335782051,18.25,0.0,2.785921096801758,0.0858306884765625,-1.1505062878131866,18.75,0.0,2.5169849395751953,0.17023086547851562,-1.342257335782051,13.25,0.0,3.2393932342529297,-1.0421276092529297,0.0,22.5,0.0,3.3556222915649414,-1.109004020690918,0.0,17.75,0.0,3.1653642654418945,-0.9169578552246094,0.0,24.5,0.0,2.7948617935180664,0.04398822784423828,0.0,28.5,0.0,2.888917922973633,-0.012874603271484375,0.0,28.75,0.0,2.695441246032715,0.08797645568847656,0.0,24.25,,,,,,,,,,,,,,,
0.0,-0.5198434591293335,2.826258659362793,1.6854011519740197e-08,-0.013242889195680618,-0.6341056823730469,7.61003562388396e-08,0.1170167401432991,-0.6671406626701355,6.165132049318345e-08,0.0,3.006577491760254,-1.1991262435913086,-0.3835020959377289,20.25,0.0,3.106355667114258,-1.3450384140014648,-0.7670041918754578,18.5,0.0,3.2508373260498047,-1.4129877090454102,-0.7670041918754578,13.0,0.0,2.955794334411621,-0.8490085601806641,-0.5752531439065933,23.25,0.0,2.920389175415039,-0.5568265914916992,-0.5752531439065933,25.25,0.0,2.808809280395508,-0.36263465881347656,-0.5752531439065933,21.0,0.0,2.3714303970336914,0.12409687042236328,-0.9587552398443222,13.0,0.0,2.434372901916504,0.12159347534179688,-0.9587552398443222,20.0,0.0,2.5545358657836914,0.12195110321044922,-0.9587552398443222,19.0,0.0,3.1592845916748047,-0.9648799896240234,0.0,24.5,0.0,3.220081329345703,-1.0607242584228516,0.0,22.75,0.0,3.3484697341918945,-1.0771751403808594,0.0,16.75,0.0,2.784848213195801,0.03218650817871094,0.0,28.5,0.0,2.8831958770751953,-0.03254413604736328,0.0,28.5,,,,,,,,,,
0.0,-0.5538108348846436,2.752078056335449,1.7929162154928235e-08,-0.06153285875916481,-0.7123916745185852,7.27539557487944e-08,0.06455254554748535,-0.6755610108375549,5.524264778955512e-08,0.0,2.7894973754882812,-1.452326774597168,-0.9587552398443222,20.75,0.0,2.854585647583008,-1.4719963073730469,-0.9587552398443222,19.0,0.0,2.9386281967163086,-1.5846490859985352,-0.9587552398443222,13.25,0.0,2.5180578231811523,-0.3801584243774414,-0.5752531439065933,20.5,0.0,2.725839614868164,-0.4023313522338867,-0.5752531439065933,21.75,0.0,2.8907060623168945,-0.3032684326171875,-0.5752531439065933,20.0,0.0,2.3818016052246094,-0.09906291961669922,-0.5752531439065933,23.0,0.0,2.3392438888549805,-0.046133995056152344,-0.3835020959377289,19.25,0.0,3.2175779342651367,-1.067519187927246,0.0,22.5,0.0,3.335237503051758,-1.1014938354492188,0.0,16.25,0.0,2.7812719345092773,-0.0050067901611328125,0.0,28.5,0.0,2.8810501098632812,-0.01609325408935547,0.0,28.25,,,,,,,,,,,,,,,,,,,,
0.0,-0.6400535106658936,2.669431447982788,1.863140219882098e-08,-0.19863161444664001,-0.8055928349494934,6.856966905388617e-08,-0.05952126532793045,-0.7071395516395569,4.861923486032538e-08,0.0,2.742290496826172,-1.3107061386108398,-1.9175104796886444,17.75,0.0,2.8792619705200195,-1.4820098876953125,0.19175104796886444,16.75,0.0,2.990841865539551,-1.5878677368164062,-0.3835020959377289,14.0,0.0,2.566695213317871,-0.7921457290649414,-0.9587552398443222,23.0,0.0,2.7076005935668945,-0.6208419799804688,-0.7670041918754578,27.75,0.0,2.732992172241211,-0.7756948471069336,-0.7670041918754578,23.0,0.0,2.250194549560547,-0.29289722442626953,-0.7670041918754578,17.25,0.0,2.4243593215942383,-0.24318695068359375,-0.7670041918754578,17.25,0.0,1.690506935119629,-1.4823675155639648,0.0,13.75,,,,,,,,,,,,,,,,,,,,,,,,,,,,,,,,,,,
0.0,-0.7319878339767456,2.532994270324707,1.9940362250281396e-08,-0.3129146695137024,-1.02406907081604,6.483239900489934e-08,-0.12783506512641907,-0.9316707253456116,4.2530576394028685e-08,0.0,2.61533260345459,-1.4494657516479492,-1.1505062878131866,15.25,0.0,2.4683475494384766,-1.2102127075195312,-2.109261527657509,24.75,0.0,2.526998519897461,-1.3167858123779297,-2.109261527657509,20.0,0.0,2.3893117904663086,-1.0532140731811523,-2.109261527657509,23.75,0.0,2.1736621856689453,-0.5096197128295898,-0.9587552398443222,23.5,0.0,2.281308174133301,-0.651240348815918,-0.9587552398443222,22.0,0.0,1.7309188842773438,-1.3704299926757812,0.0,20.5,,,,,,,,,,,,,,,,,,,,,,,,,,,,,,,,,,,,,,,,,,,,,
0.0,0.20831622183322906,2.981544256210327,-5.202587805008818e-10,0.6397153735160828,-0.3409533202648163,1.6351178189211169e-09,-0.06419733166694641,-0.48090416193008423,2.5325987973445763e-09,0.0,2.7887821197509766,-1.6078948974609375,-0.19175104796886444,20.5,0.0,3.1278133392333984,-1.1926889419555664,-0.19175104796886444,27.75,0.0,3.118157386779785,-1.1848211288452148,-0.19175104796886444,24.25,0.0,2.878904342651367,-0.13911724090576172,-0.19175104796886444,25.75,0.0,2.8846263885498047,0.09655952453613281,-0.19175104796886444,22.0,,,,,,,,,,,,,,,,,,,,,,,,,,,,,,,,,,,,,,,,,,,,,,,,,,,,,,,
0.0,0.18310025334358215,2.9633724689483643,-2.709525381838773e-10,0.498425155878067,-0.34969258308410645,1.9707264709012406e-09,-0.17096957564353943,-0.437401682138443,2.579497504484607e-09,0.0,3.132462501525879,-1.177668571472168,-0.19175104796886444,16.0,0.0,3.101348876953125,-0.9405612945556641,-0.19175104796886444,22.75,0.0,3.0766725540161133,-0.3801584243774414,-0.19175104796886444,22.75,0.0,2.933621406555176,0.06186962127685547,-0.3835020959377289,23.25,0.0,2.8531551361083984,0.1266002655029297,-0.19175104796886444,21.75,,,,,,,,,,,,,,,,,,,,,,,,,,,,,,,,,,,,,,,,,,,,,,,,,,,,,,,
0.0,0.16096116602420807,2.927354335784912,-4.472383574594119e-11,0.3715147376060486,-0.3838362991809845,2.2474508920566905e-09,-0.25872665643692017,-0.4234171509742737,2.5901520928073296e-09,0.0,3.175020217895508,-1.4748573303222656,-0.19175104796886444,12.25,0.0,3.1102895736694336,-1.1494159698486328,-0.19175104796886444,24.75,0.0,3.170013427734375,-1.1780261993408203,0.19175104796886444,19.75,0.0,2.872467041015625,0.012516975402832031,-0.3835020959377289,27.5,0.0,2.8885602951049805,-0.054001808166503906,-0.3835020959377289,30.25,0.0,2.9726028442382812,0.07581710815429688,-0.19175104796886444,23.75,0.0,2.7834177017211914,0.11086463928222656,-0.3835020959377289,17.0,,,,,,,,,,,,,,,,,,,,,,,,,,,,,,,,,,,,,,,,,,,,,
0.0,0.0574689656496048,2.9320855140686035,1.4251097524287104e-10,0.13366985321044922,-0.3456851840019226,2.4515414143166936e-09,-0.42662477493286133,-0.3436344861984253,2.5581057272461294e-09,0.0,3.081679344177246,-0.3476142883300781,-0.19175104796886444,23.5,0.0,3.2111406326293945,-0.4706382751464844,-0.19175104796886444,22.25,0.0,2.740144729614258,0.007510185241699219,-0.3835020959377289,15.0,0.0,2.8363466262817383,0.03504753112792969,-0.3835020959377289,21.5,0.0,2.943277359008789,-0.06937980651855469,-0.3835020959377289,23.5,0.0,3.0301809310913086,-0.33652782440185547,0.0,29.0,0.0,2.866387367248535,0.08082389831542969,0.0,30.0,0.0,2.912163734436035,-0.042557716369628906,0.0,32.25,,,,,,,,,,,,,,,,,,,,,,,,,,,,,,,,,,,,,,,,
0.0,0.05468932166695595,2.880048990249634,3.2672009542267233e-10,0.06680837273597717,-0.39919570088386536,2.624944039908428e-09,-0.4472348093986511,-0.3568290174007416,2.5105564294136684e-09,0.0,3.0069351196289062,-1.6776323318481445,-0.19175104796886444,18.0,0.0,3.1120777130126953,-1.783132553100586,-0.19175104796886444,16.0,0.0,3.0312538146972656,-1.3818740844726562,-0.19175104796886444,20.75,0.0,2.8885602951049805,-1.1326074600219727,-0.3835020959377289,16.75,0.0,2.740144729614258,0.025391578674316406,-0.3835020959377289,23.25,0.0,2.773404121398926,0.0035762786865234375,-0.3835020959377289,28.75,0.0,2.7952194213867188,-0.033974647521972656,-0.3835020959377289,26.25,0.0,3.028392791748047,-0.3186464309692383,0.0,28.75,0.0,2.8935670852661133,-0.04398822784423828,0.0,32.5,,,,,,,,,,,,,,,,,,,,,,,,,,,,,,,,,,,
0.0,-0.013951148837804794,2.839958429336548,4.318462532015843e-10,-0.09641822427511215,-0.4292218089103699,2.6842235101298684e-09,-0.5451781153678894,-0.35053780674934387,2.398644616263823e-09,0.0,3.0766725540161133,-1.1715888977050781,-0.3835020959377289,20.25,0.0,3.139972686767578,-1.3672113418579102,-0.3835020959377289,18.5,0.0,3.3795833587646484,-1.1394023895263672,-0.3835020959377289,14.0,0.0,3.005504608154297,-0.7495880126953125,-0.19175104796886444,20.75,0.0,2.894282341003418,-0.3676414489746094,0.19175104796886444,21.75,0.0,2.7626752853393555,-0.024318695068359375,-0.7670041918754578,21.5,0.0,2.5548934936523438,0.2650022506713867,-0.7670041918754578,12.25,0.0,2.640366554260254,0.2535581588745117,-0.7670041918754578,20.0,,,,,,,,,,,,,,,,,,,,,,,,,,,,,,,,,,,,,,,,
0.0,-0.19369830191135406,2.801482677459717,4.851391510740655e-10,-0.42448851466178894,-0.5013012886047363,2.655787811889354e-09,-0.7732000946998596,-0.43510639667510986,2.2364119445228425e-09,0.0,3.058791160583496,-1.4004707336425781,-0.19175104796886444,13.75,0.0,2.946138381958008,-1.0192394256591797,-0.7670041918754578,24.5,0.0,2.9969215393066406,-1.0979175567626953,-0.19175104796886444,19.75,0.0,2.884984016418457,-0.7857084274291992,-0.5752531439065933,21.5,0.0,2.7365684509277344,-0.17452239990234375,-0.9587552398443222,20.25,0.0,2.6171207427978516,0.025391578674316406,-0.9587552398443222,20.5,0.0,2.533435821533203,0.16200542449951172,-0.9587552398443222,15.25,0.0,2.8874874114990234,-0.11801719665527344,0.0,31.25,,,,,,,,,,,,,,,,,,,,,,,,,,,,,,,,,,,,,,,,
0.0,-0.24182316660881042,2.748472213745117,5.495743859995628e-10,-0.510114312171936,-0.5231131911277771,2.635230034186975e-09,-0.7832812666893005,-0.3921423852443695,2.0921908649995657e-09,0.0,2.897500991821289,-1.4798641204833984,-0.3835020959377289,19.0,0.0,3.058791160583496,-1.433730125427246,-0.5752531439065933,16.25,0.0,2.936840057373047,-0.916600227355957,0.19175104796886444,20.75,0.0,2.7512311935424805,-0.685572624206543,-0.3835020959377289,17.5,0.0,2.879977226257324,-0.7631778717041016,0.19175104796886444,23.5,0.0,2.3818016052246094,0.21922588348388672,-0.7670041918754578,15.0,0.0,2.431154251098633,0.2617835998535156,-0.7670041918754578,22.75,0.0,2.4712085723876953,0.29468536376953125,-0.7670041918754578,21.75,0.0,2.870321273803711,-0.0743865966796875,0.0,31.0,,,,,,,,,,,,,,,,,,,,,,,,,,,,,,,,,,,
0.0,-0.40942803025245667,2.705104351043701,5.426992744084203e-10,-0.7689075469970703,-0.6145658493041992,2.497368090104146e-09,-0.9295807480812073,-0.5100811123847961,1.8758803399521184e-09,0.0,2.893209457397461,-1.3228654861450195,-0.5752531439065933,21.25,0.0,3.0062198638916016,-1.4630556106567383,-0.5752531439065933,15.75,0.0,2.8241872787475586,-1.2230873107910156,-0.5752531439065933,26.5,0.0,2.8116703033447266,-1.0156631469726562,-1.1505062878131866,26.5,0.0,2.7741193771362305,-0.6880760192871094,-1.1505062878131866,21.75,0.0,2.566695213317871,-0.057578086853027344,-0.5752531439065933,18.0,0.0,2.349257469177246,0.1634359359741211,-0.5752531439065933,14.75,0.0,2.4057626724243164,0.15020370483398438,-0.5752531439065933,19.75,,,,,,,,,,,,,,,,,,,,,,,,,,,,,,,,,,,,,,,,
0.0,-0.6153836846351624,2.650810718536377,5.368949729245287e-10,-1.0655096769332886,-0.7103321552276611,2.3484010291952018e-09,-1.095497727394104,-0.6098935008049011,1.6623157295114765e-09,0.0,2.7773380279541016,-1.381516456604004,-1.1505062878131866,20.0,0.0,2.908945083618164,-1.409769058227539,-0.3835020959377289,19.25,0.0,3.0333995819091797,-1.5195608139038086,-0.3835020959377289,16.25,0.0,3.154277801513672,-1.6758441925048828,-0.5752531439065933,13.25,0.0,2.7201175689697266,-1.199483871459961,-1.1505062878131866,19.5,0.0,2.670407295227051,-0.8833408355712891,-0.5752531439065933,19.25,0.0,2.52377986907959,-0.4895925521850586,-0.5752531439065933,17.5,0.0,2.3932456970214844,-0.13375282287597656,-0.3835020959377289,19.25,0.0,2.3288726806640625,-0.061511993408203125,-0.3835020959377289,14.75,0.0,3.059506416320801,-1.0800361633300781,0.0,21.75,,,,,,,,,,,,,,,,,,,,,,,,,,,,,,
0.0,-0.7333760261535645,2.540860652923584,5.970999250592968e-10,-1.1494719982147217,-0.8900613784790039,2.2682444811295e-09,-1.045264482498169,-0.792088508605957,1.5002837860933482e-09,0.0,2.4672746658325195,-1.1276006698608398,-1.342257335782051,24.5,0.0,2.3936033248901367,-1.0457038879394531,-1.342257335782051,23.5,0.0,2.598881721496582,-1.1730194091796875,-0.9587552398443222,18.0,0.0,2.8095245361328125,-1.1368989944458008,-1.342257335782051,13.0,0.0,2.327442169189453,-0.7549524307250977,-0.19175104796886444,20.0,0.0,2.248048782348633,-0.32901763916015625,-0.7670041918754578,18.0,0.0,3.0323266983032227,-1.1733770370483398,0.0,21.0,0.0,3.1582117080688477,-1.2366771697998047,0.0,17.75,,,,,,,,,,,,,,,,,,,,,,,,,,,,,,,,,,,,,,,,
0.0,-0.9115886688232422,2.408950090408325,6.568570687370823e-10,-1.345949649810791,-1.0606040954589844,2.1804571481709445e-09,-1.1137714385986328,-0.9104307889938354,1.3435784707027665e-09,0.0,2.4361610412597656,-1.3210773468017578,-0.19175104796886444,12.25,0.0,2.0323991775512695,-1.0417699813842773,-0.9587552398443222,25.5,0.0,2.1715164184570312,-1.0843276977539062,-0.9587552398443222,27.5,0.0,2.267003059387207,-1.1712312698364258,-1.72575943171978,29.5,0.0,2.327084541320801,-1.2066364288330078,0.19175104796886444,25.25,0.0,2.9861927032470703,-1.2853145599365234,0.0,19.75,0.0,3.0988454818725586,-1.398324966430664,0.0,17.0,,,,,,,,,,,,,,,,,,,,,,,,,,,,,,,,,,,,,,,,,,,,,
0.0,-1.0464448928833008,2.247861623764038,6.74224620578201e-10,-1.4020076990127563,-1.286000370979309,2.023312850596426e-09,-1.0262584686279297,-1.101851224899292,1.1484460049615564e-09,0.0,1.9551515579223633,-1.1358261108398438,-0.5752531439065933,24.0,0.0,2.052426338195801,-1.2896060943603516,-0.9587552398443222,27.75,0.0,2.146482467651367,-1.2788772583007812,-1.9175104796886444,27.5,0.0,2.2516250610351562,-1.2956857681274414,-1.9175104796886444,18.0,0.0,1.8700361251831055,-0.9588003158569336,-0.9587552398443222,13.75,0.0,2.165079116821289,-1.033186912536621,0.0,24.25,0.0,2.992987632751465,-1.2663602828979492,0.0,20.25,0.0,3.0966997146606445,-1.39617919921875,0.0,17.25,,,,,,,,,,,,,,,,,,,,,,,,,,,,,,,,,,,,,,,,
0.0,-0.12180888652801514,2.9641382694244385,-5.7306520639954783e-11,-0.3705507516860962,-0.3738674223423004,-5.059356406045268e-11,-0.802269697189331,-0.2713223695755005,2.983628274999539e-11,0.0,3.197908401489258,-1.0857582092285156,-0.19175104796886444,15.0,0.0,3.096342086791992,-0.8836984634399414,-0.19175104796886444,18.5,0.0,3.0144453048706055,-0.6340742111206055,-0.19175104796886444,22.25,0.0,2.9093027114868164,-0.20813941955566406,-0.19175104796886444,22.75,0.0,2.7501583099365234,0.18131732940673828,-0.19175104796886444,23.0,0.0,2.6646852493286133,0.2650022506713867,-0.7670041918754578,21.25,,,,,,,,,,,,,,,,,,,,,,,,,,,,,,,,,,,,,,,,,,,,,,,,,,
0.0,-0.30510246753692627,2.9523651599884033,-4.352104787663791e-11,-0.6818374991416931,-0.38184645771980286,-2.5777904116841555e-11,-0.9934892654418945,-0.27487048506736755,4.304723591475046e-11,0.0,3.1385421752929688,-1.2155771255493164,-0.19175104796886444,21.0,0.0,3.2830238342285156,-1.238107681274414,-0.5752531439065933,13.25,0.0,3.0663013458251953,-0.7245540618896484,-0.3835020959377289,24.5,0.0,3.12960147857666,-0.9130239486694336,-0.3835020959377289,23.5,0.0,2.9261112213134766,-0.23102760314941406,-0.3835020959377289,22.25,0.0,2.696871757507324,0.057578086853027344,-0.3835020959377289,18.25,0.0,2.7866363525390625,-0.07367134094238281,-0.3835020959377289,22.75,,,,,,,,,,,,,,,,,,,,,,,,,,,,,,,,,,,,,,,,,,,,,
0.0,-0.36830586194992065,2.8840794563293457,-3.301979523140375e-11,-0.7521178126335144,-0.4964326322078705,-6.000991370491704e-12,-0.9610335230827332,-0.3966566026210785,5.2633938874002695e-11,0.0,3.013014793395996,-0.9201765060424805,-0.3835020959377289,22.75,0.0,3.074526786804199,-1.0170936584472656,-0.3835020959377289,20.0,0.0,3.1725168228149414,-1.0703802108764648,-0.3835020959377289,16.0,0.0,2.9189586639404297,-0.6480216979980469,-0.3835020959377289,20.25,0.0,2.68399715423584,-0.06258487701416016,-0.9587552398443222,18.75,0.0,2.4805068969726562,0.21779537200927734,-0.9587552398443222,21.25,0.0,2.52377986907959,0.18417835235595703,-0.9587552398443222,22.75,,,,,,,,,,,,,,,,,,,,,,,,,,,,,,,,,,,,,,,,,,,,,
0.0,-0.48044899106025696,2.8090627193450928,-2.4656873764961063e-11,-0.8819718360900879,-0.6509860754013062,1.0199539997313156e-11,-0.975864827632904,-0.5763530731201172,5.964250621159906e-11,0.0,3.331303596496582,-2.264857292175293,-0.3835020959377289,13.5,0.0,3.023386001586914,-1.129746437072754,-0.7670041918754578,20.0,0.0,3.075242042541504,-1.3235807418823242,-0.5752531439065933,15.25,0.0,2.947568893432617,-1.0074377059936523,-0.7670041918754578,22.75,0.0,2.8957128524780273,-0.8111000061035156,-0.9587552398443222,22.0,0.0,2.7616024017333984,-0.5593299865722656,-1.1505062878131866,15.5,0.0,2.465486526489258,0.13303756713867188,-0.9587552398443222,16.75,0.0,2.525210380554199,0.1119375228881836,-0.9587552398443222,17.25,0.0,2.913236618041992,-0.07867813110351562,0.0,27.75,,,,,,,,,,,,,,,,,,,,,,,,,,,,,,,,,,,
0.0,-0.5720762014389038,2.739928722381592,-1.658989265407307e-11,-0.9652224779129028,-0.7428208589553833,2.4854689487097126e-11,-0.955799400806427,-0.6373062133789062,6.523300649652342e-11,0.0,2.7812719345092773,-1.0575056076049805,-0.9587552398443222,20.75,0.0,2.9075145721435547,-1.1469125747680664,-0.3835020959377289,17.75,0.0,3.077387809753418,-1.1740922927856445,-0.3835020959377289,19.5,0.0,3.150343894958496,-1.2059211730957031,-0.19175104796886444,18.25,0.0,2.7158260345458984,-0.9562969207763672,-0.9587552398443222,16.0,0.0,2.310633659362793,0.14448165893554688,-0.7670041918754578,17.5,0.0,2.331376075744629,0.12087821960449219,-0.7670041918754578,19.75,0.0,2.425074577331543,0.1398324966430664,-0.9587552398443222,13.25,0.0,2.9296875,-0.17273426055908203,0.0,26.75,0.0,2.7909278869628906,0.03826618194580078,0.0,26.0,,,,,,,,,,,,,,,,,,,,,,,,,,,,,,
0.0,-0.7307523488998413,2.668896436691284,-9.987411939138546e-12,-1.162115216255188,-0.8181787133216858,3.646002250112801e-11,-1.0431078672409058,-0.6617690920829773,6.85674364508948e-11,0.0,2.7344226837158203,-1.614689826965332,-0.19175104796886444,19.0,0.0,2.6693344116210938,-1.3146400451660156,-0.9587552398443222,16.75,0.0,2.9271841049194336,-1.4798641204833984,-0.19175104796886444,19.5,0.0,3.0241012573242188,-1.468062400817871,-0.19175104796886444,16.5,0.0,2.604961395263672,-1.0178089141845703,-0.7670041918754578,17.0,0.0,2.534151077270508,-0.6594657897949219,-0.7670041918754578,12.25,0.0,2.2183656692504883,0.1437664031982422,-0.5752531439065933,16.75,0.0,2.2895336151123047,0.11050701141357422,-0.5752531439065933,14.5,,,,,,,,,,,,,,,,,,,,,,,,,,,,,,,,,,,,,,,,
0.0,-0.8787426352500916,2.565786838531494,-4.870654227162596e-12,-1.268265724182129,-1.0061331987380981,4.498973069089196e-11,-1.0092238187789917,-0.8633012175559998,6.974700678119561e-11,0.0,2.9293298721313477,-1.615762710571289,-0.3835020959377289,17.75,0.0,2.639293670654297,-1.2187957763671875,-1.342257335782051,18.25,0.0,2.705812454223633,-1.3661384582519531,-1.342257335782051,25.25,0.0,2.755880355834961,-1.3840198516845703,-1.342257335782051,25.0,0.0,2.8510093688964844,-1.4358758926391602,-1.342257335782051,22.0,0.0,2.4290084838867188,-0.7928609848022461,-1.1505062878131866,13.75,0.0,2.2602081298828125,-0.5811452865600586,-0.19175104796886444,18.25,0.0,2.2101402282714844,-0.48851966857910156,-0.19175104796886444,17.5,0.0,2.7608871459960938,0.04684925079345703,0.0,22.0,,,,,,,,,,,,,,,,,,,,,,,,,,,,,,,,,,,
0.0,-1.0051548480987549,2.431036949157715,-4.1818141289194644e-13,-1.3143310546875,-1.2028260231018066,5.1389843769289456e-11,-0.9234866499900818,-1.034752607345581,6.937553309604994e-11,0.0,2.529144287109375,-1.3886690139770508,-2.109261527657509,19.0,0.0,2.5720596313476562,-1.578211784362793,-2.684514671564102,15.25,0.0,2.755880355834961,-1.7001628875732422,-2.684514671564102,12.25,0.0,2.3049116134643555,-1.1626482009887695,-0.19175104796886444,19.75,0.0,2.471923828125,-1.2960433959960938,-2.109261527657509,21.75,0.0,2.1829605102539062,-0.8221864700317383,-0.3835020959377289,22.0,0.0,2.1268129348754883,-0.7020235061645508,-0.3835020959377289,23.25,0.0,2.774477005004883,-0.20599365234375,0.0,21.75,,,,,,,,,,,,,,,,,,,,,,,,,,,,,,,,,,,,,,,,
0.0,-1.0821733474731445,2.3024444580078125,3.7608974094716086e-12,-1.2611827850341797,-1.346961259841919,5.6435672107779666e-11,-0.7635924816131592,-1.1179701089859009,6.808956176662662e-11,0.0,2.034902572631836,-0.9924173355102539,-1.5340083837509155,17.75,0.0,2.1800994873046875,-1.1043548583984375,-1.5340083837509155,20.25,0.0,2.509474754333496,-1.3260841369628906,-1.342257335782051,15.25,0.0,2.398252487182617,-0.9974241256713867,-1.342257335782051,22.75,0.0,2.521991729736328,-0.9620189666748047,-1.342257335782051,21.25,0.0,1.8417835235595703,-1.169443130493164,0.0,20.75,,,,,,,,,,,,,,,,,,,,,,,,,,,,,,,,,,,,,,,,,,,,,,,,,,
0.0,-0.4620126783847809,3.0144364833831787,-2.0664221202226773e-12,-0.8899620175361633,-0.2862987518310547,-4.0026432689133085e-12,-0.9685769081115723,-0.18374213576316833,-9.450751813078195e-13,0.0,3.0666589736938477,-1.1490583419799805,-0.19175104796886444,20.75,0.0,3.216862678527832,-0.9191036224365234,-0.19175104796886444,27.25,0.0,3.2340288162231445,-0.8772611618041992,-0.19175104796886444,24.0,0.0,3.4214258193969727,-0.641942024230957,-0.19175104796886444,13.25,0.0,2.8585195541381836,0.27000904083251953,-0.19175104796886444,22.25,0.0,2.843499183654785,0.2936124801635742,-0.19175104796886444,20.25,0.0,2.79843807220459,0.1627206802368164,0.0,16.75,,,,,,,,,,,,,,,,,,,,,,,,,,,,,,,,,,,,,,,,,,,,,
0.0,-0.5465165376663208,3.0011518001556396,-1.8496489062602706e-12,-0.9636704325675964,-0.29939165711402893,-3.324609034252579e-12,-0.94487464427948,-0.19611138105392456,-4.649328881958792e-13,0.0,3.1235218048095703,-1.1805295944213867,-0.19175104796886444,23.25,0.0,3.195047378540039,-1.2062788009643555,-0.19175104796886444,22.25,0.0,3.3055543899536133,-1.1876821517944336,-0.19175104796886444,16.75,0.0,3.0927658081054688,-0.607609748840332,-0.19175104796886444,20.25,0.0,2.940058708190918,-0.11515617370605469,-0.19175104796886444,19.25,0.0,2.7801990509033203,0.2557039260864258,-0.19175104796886444,19.25,0.0,2.708315849304199,0.26106834411621094,-0.3835020959377289,14.75,0.0,3.1456947326660156,-0.9233951568603516,0.0,29.5,0.0,2.889275550842285,0.07867813110351562,0.0,28.75,0.0,2.787351608276367,0.16736984252929688,0.0,17.75,,,,,,,,,,,,,,,,,,,,,,,,,,,,,,
0.0,-0.5846543908119202,2.979222297668457,-1.6456024910793676e-12,-0.939307689666748,-0.3201867341995239,-2.687275532306521e-12,-0.8381798267364502,-0.2134491354227066,-3.638915883029392e-14,0.0,3.0966997146606445,-2.1032094955444336,-0.3835020959377289,13.0,0.0,3.2612085342407227,-1.4473199844360352,-0.19175104796886444,16.25,0.0,3.014087677001953,-0.9516477584838867,-0.19175104796886444,14.0,0.0,3.196120262145996,-1.0535717010498047,-0.19175104796886444,19.0,0.0,3.267645835876465,-1.101851463317871,-0.19175104796886444,18.75,0.0,2.7219057083129883,0.11372566223144531,-0.19175104796886444,21.5,0.0,2.7315616607666016,0.10478496551513672,-0.3835020959377289,25.5,0.0,2.763032913208008,0.1308917999267578,-0.3835020959377289,20.25,0.0,3.1489133834838867,-0.9566545486450195,0.0,29.25,,,,,,,,,,,,,,,,,,,,,,,,,,,,,,,,,,,
0.0,-0.5251033306121826,2.9603967666625977,-1.5506380901531003e-12,-0.7379746437072754,-0.3195590674877167,-2.2227560503990107e-12,-0.5898025035858154,-0.20272520184516907,2.5715931120662283e-13,0.0,2.933621406555176,-1.8210411071777344,-0.3835020959377289,15.5,0.0,3.0570030212402344,-1.8943548202514648,-0.3835020959377289,13.75,0.0,3.058791160583496,-0.40340423583984375,-0.3835020959377289,18.75,0.0,2.788066864013672,0.08118152618408203,-0.3835020959377289,22.0,0.0,2.8810501098632812,0.04184246063232422,-0.3835020959377289,21.0,0.0,3.2683610916137695,-0.046133995056152344,-0.3835020959377289,17.25,0.0,2.7168989181518555,0.1251697540283203,-0.3835020959377289,17.0,0.0,3.24404239654541,1.1490583419799805,-0.3835020959377289,16.0,0.0,3.3055543899536133,1.2938976287841797,-0.3835020959377289,13.5,0.0,3.3416748046875,-1.7423629760742188,0.0,13.25,0.0,3.137826919555664,-0.9870529174804688,0.0,28.75,0.0,3.179311752319336,-1.1715888977050781,0.0,23.25,,,,,,,,,,,,,,,,,,,,
0.0,-0.6052678227424622,2.9467904567718506,-1.2728787208288184e-12,-0.7870063781738281,-0.361809104681015,-1.5385247329607887e-12,-0.5697381496429443,-0.2715645432472229,6.775097518597895e-13,0.0,3.1957626342773438,-1.5707015991210938,-0.5752531439065933,19.25,0.0,3.3599138259887695,-1.6368627548217773,-0.3835020959377289,14.5,0.0,3.177165985107422,-1.3121366500854492,-0.5752531439065933,22.75,0.0,3.093123435974121,-0.8504390716552734,-0.3835020959377289,21.75,0.0,3.1821727752685547,-0.9344816207885742,-0.5752531439065933,23.25,0.0,2.71761417388916,0.030040740966796875,-0.3835020959377289,22.0,0.0,2.672553062438965,0.1455545425415039,-0.3835020959377289,19.5,0.0,2.8581619262695312,0.26035308837890625,-0.19175104796886444,17.25,0.0,3.329157829284668,-1.7484426498413086,0.0,13.5,0.0,3.143191337585449,-1.0285377502441406,0.0,29.0,0.0,2.816319465637207,0.07367134094238281,0.0,27.5,0.0,2.914309501647949,0.018596649169921875,0.0,29.25,0.0,2.7201175689697266,0.13697147369384766,0.0,22.5,,,,,,,,,,,,,,,
0.0,-0.6395875215530396,2.8977062702178955,-1.1125601308281663e-12,-0.7463151812553406,-0.4401707053184509,-1.0574022126647042e-12,-0.4738506078720093,-0.35725149512290955,9.41898902623306e-13,0.0,3.023386001586914,-1.1726617813110352,-0.5752531439065933,20.25,0.0,3.1124353408813477,-1.2406110763549805,-0.5752531439065933,14.75,0.0,2.936840057373047,-0.9731054306030273,-0.5752531439065933,22.0,0.0,2.8477907180786133,-0.3154277801513672,-0.5752531439065933,23.75,0.0,2.7583837509155273,-0.13589859008789062,-0.5752531439065933,25.75,0.0,2.685427665710449,0.0010728836059570312,-0.5752531439065933,22.0,0.0,2.5527477264404297,0.24390220642089844,-0.7670041918754578,14.25,0.0,2.5473833084106445,0.2435445785522461,-0.7670041918754578,14.5,0.0,3.290534019470215,-1.8360614776611328,0.0,13.25,0.0,3.2014846801757812,-1.4823675155639648,0.0,17.25,0.0,3.1664371490478516,-1.1898279190063477,0.0,23.5,0.0,3.1288862228393555,-1.0693073272705078,0.0,27.5,0.0,2.905726432800293,-0.1659393310546875,0.0,25.5,0.0,2.7658939361572266,0.05435943603515625,0.0,26.5,0.0,2.582430839538574,0.1920461654663086,0.0,13.5,0.0,2.6890039443969727,0.12946128845214844,0.0,23.25
0.0,-0.6423357129096985,2.8281853199005127,-9.351366252532967e-13,-0.6496900320053101,-0.5373425483703613,-5.921909013509308e-13,-0.3379453718662262,-0.44827204942703247,1.1787881868535743e-12,0.0,2.951502799987793,-1.1987686157226562,-0.9587552398443222,15.0,0.0,2.8488636016845703,-0.9573698043823242,-0.9587552398443222,21.5,0.0,2.753019332885742,-0.7617473602294922,-0.3835020959377289,27.5,0.0,2.708315849304199,-0.45669078826904297,-0.3835020959377289,28.75,0.0,2.544522285461426,0.04971027374267578,-0.7670041918754578,23.25,0.0,2.614259719848633,-0.044345855712890625,-0.7670041918754578,28.0,0.0,3.316640853881836,-1.8160343170166016,0.0,13.25,0.0,3.136754035949707,-1.0896921157836914,0.0,24.25,0.0,3.1696557998657227,-1.1762380599975586,0.0,22.0,0.0,2.5734901428222656,0.046133995056152344,0.0,18.75,,,,,,,,,,,,,,,,,,,,,,,,,,,,,,
0.0,-0.6891996264457703,2.747668743133545,-6.958703361800711e-13,-0.6351403594017029,-0.6520037055015564,-8.31793130467301e-14,-0.2835772633552551,-0.5488661527633667,1.4283954878277494e-12,0.0,2.911806106567383,-1.6937255859375,-1.5340083837509155,12.25,0.0,2.799868583679199,-1.0703802108764648,-0.7670041918754578,25.25,0.0,2.888202667236328,-1.256704330444336,-0.7670041918754578,17.25,0.0,2.727627754211426,-0.9455680847167969,-0.9587552398443222,31.5,0.0,2.6750564575195312,-0.6612539291381836,-0.19175104796886444,31.5,0.0,2.597808837890625,-0.25069713592529297,-0.5752531439065933,30.75,0.0,2.4286508560180664,-0.11372566223144531,-0.5752531439065933,13.5,0.0,2.532362937927246,-0.12087821960449219,-0.5752531439065933,26.25,0.0,3.162860870361328,-1.2127161026000977,0.0,22.25,0.0,3.120303153991699,-1.1186599731445312,0.0,22.75,0.0,2.826690673828125,-0.2803802490234375,0.0,24.0,,,,,,,,,,,,,,,,,,,,,,,,,
0.0,-0.764289140701294,2.6511874198913574,-4.963276968236729e-13,-0.6659194231033325,-0.7866754531860352,3.2944962946937495e-13,-0.2708030641078949,-0.6601568460464478,1.6013607540693586e-12,0.0,2.804875373840332,-1.5696287155151367,-0.19175104796886444,18.25,0.0,2.889275550842285,-1.7462968826293945,-0.19175104796886444,15.5,0.0,2.7151107788085938,-1.3103485107421875,-1.1505062878131866,21.0,0.0,2.6586055755615234,-1.0571479797363281,-1.1505062878131866,26.0,0.0,2.5609731674194336,-0.950932502746582,-0.3835020959377289,31.0,0.0,2.5016069412231445,-0.4616975784301758,-0.9587552398443222,31.75,0.0,2.361774444580078,-0.23603439331054688,-0.9587552398443222,25.75,0.0,2.4232864379882812,-0.27251243591308594,-0.9587552398443222,32.0,,,,,,,,,,,,,,,,,,,,,,,,,,,,,,,,,,,,,,,,
0.0,-0.9019792079925537,2.5198304653167725,-3.3993204843867086e-13,-0.7966348528862,-0.9749504327774048,6.460589441897868e-13,-0.3417414128780365,-0.816187858581543,1.7029477871258192e-12,0.0,2.5169849395751953,-1.4330148696899414,-0.7670041918754578,22.0,0.0,2.5545358657836914,-1.616835594177246,-1.342257335782051,19.75,0.0,2.732992172241211,-1.6064643859863281,0.19175104796886444,15.5,0.0,2.4840831756591797,-1.2202262878417969,-0.9587552398443222,24.75,0.0,2.360701560974121,-0.9541511535644531,-0.9587552398443222,24.0,0.0,2.244114875793457,-0.6794929504394531,-1.1505062878131866,27.25,0.0,2.1747350692749023,-0.6401538848876953,-1.1505062878131866,26.5,0.0,2.801656723022461,-1.2012720108032227,0.0,20.75,,,,,,,,,,,,,,,,,,,,,,,,,,,,,,,,,,,,,,,,
0.0,-1.057477355003357,2.422480821609497,-1.8579183872803606e-13,-0.9793683290481567,-1.0344748497009277,9.274087574284717e-13,-0.48862406611442566,-0.7686105966567993,1.7744338984271302e-12,0.0,2.366781234741211,-1.4133453369140625,0.19175104796886444,16.5,0.0,2.495884895324707,-1.4619827270507812,0.19175104796886444,17.0,0.0,2.7043819427490234,-1.4938116073608398,0.19175104796886444,15.5,0.0,2.1822452545166016,-1.1690855026245117,-1.72575943171978,18.5,0.0,2.940058708190918,-1.4126300811767578,0.19175104796886444,16.5,0.0,3.0384063720703125,-1.4923810958862305,0.3835020959377289,13.25,0.0,2.0978450775146484,-0.7899999618530273,-0.7670041918754578,29.5,0.0,2.1282434463500977,-0.7960796356201172,-0.7670041918754578,27.5,,,,,,,,,,,,,,,,,,,,,,,,,,,,,,,,,,,,,,,,
0.0,-1.1136109828948975,2.3132236003875732,-6.841747356373454e-14,-0.9429269433021545,-1.1134098768234253,1.125677242391765e-12,-0.4069236218929291,-0.7764734029769897,1.787686318421855e-12,0.0,2.959012985229492,-1.7927885055541992,-0.19175104796886444,12.25,0.0,2.1986961364746094,-1.0474920272827148,-0.7670041918754578,15.0,0.0,1.947641372680664,-0.7817745208740234,-0.7670041918754578,18.5,0.0,1.9998550415039062,-0.8057355880737305,-0.7670041918754578,29.25,0.0,2.081751823425293,-0.8314847946166992,-0.7670041918754578,24.0,0.0,2.094268798828125,-0.8050203323364258,0.0,32.25,0.0,2.788066864013672,-1.157999038696289,0.0,20.75,0.0,3.1238794326782227,-1.3757944107055664,0.0,17.5,,,,,,,,,,,,,,,,,,,,,,,,,,,,,,,,,,,,,,,,
0.0,-1.1802608966827393,2.212087631225586,3.6774951844582154e-14,-0.9204546809196472,-1.1763228178024292,1.2814693967425073e-12,-0.34144291281700134,-0.7750446796417236,1.772386274204174e-12,0.0,1.9201040267944336,-1.1343955993652344,-0.9587552398443222,19.0,0.0,2.44903564453125,-1.4119148254394531,-0.9587552398443222,12.75,0.0,2.603888511657715,-1.428365707397461,-0.3835020959377289,17.75,0.0,2.6847124099731445,-1.4551877975463867,-0.3835020959377289,17.75,0.0,2.8284788131713867,-1.4491081237792969,-0.19175104796886444,13.25,0.0,1.9261837005615234,-0.7796287536621094,-0.9587552398443222,14.75,0.0,1.930832862854004,-0.8490085601806641,-0.9587552398443222,26.5,0.0,2.9050111770629883,-1.741647720336914,0.0,12.75,0.0,2.893209457397461,-1.3375282287597656,0.0,17.25,0.0,2.089262008666992,-0.7982254028320312,0.0,32.25,0.0,2.76947021484375,-1.16729736328125,0.0,20.75,,,,,,,,,,,,,,,,,,,,,,,,,
0.0,-0.07112545520067215,3.043513774871826,2.593214068502027e-14,0.023101679980754852,-0.4359155595302582,1.395993238541282e-13,-0.4188389182090759,-0.4161035716533661,1.3623061283652566e-13,0.0,3.0434131622314453,-2.639293670654297,-0.3835020959377289,16.0,0.0,3.119945526123047,-2.1049976348876953,-0.3835020959377289,19.25,0.0,3.1009912490844727,-1.8478631973266602,-0.3835020959377289,22.0,0.0,3.079533576965332,-1.6014575958251953,-0.19175104796886444,23.0,0.0,3.04412841796875,-1.3747215270996094,-0.19175104796886444,23.25,0.0,3.0101537704467773,-0.1291036605834961,-0.3835020959377289,21.0,0.0,2.8470754623413086,0.07152557373046875,-0.3835020959377289,24.25,0.0,2.8896331787109375,0.0025033950805664062,-0.3835020959377289,25.75,0.0,2.765536308288574,0.16951560974121094,-0.3835020959377289,15.5,0.0,3.0591487884521484,-0.12373924255371094,0.0,30.25,,,,,,,,,,,,,,,,,,,,,,,,,,,,,,
0.0,-0.12204296141862869,2.9839186668395996,3.083494356658119e-14,-0.10559631139039993,-0.49595603346824646,1.4197326582594816e-13,-0.49288409948349,-0.43276897072792053,1.2952205768416297e-13,0.0,2.8928518295288086,-1.817464828491211,-0.3835020959377289,14.75,0.0,3.08382511138916,-1.8846988677978516,-0.3835020959377289,15.5,0.0,2.9976367950439453,-0.7073879241943359,-0.3835020959377289,26.0,0.0,3.0645132064819336,-0.8350610733032227,-0.3835020959377289,21.75,0.0,2.7698278427124023,0.08511543273925781,-0.5752531439065933,29.75,0.0,2.8520822525024414,-0.05829334259033203,-0.5752531439065933,26.75,0.0,2.740144729614258,0.11265277862548828,-0.5752531439065933,24.25,0.0,3.2612085342407227,-1.0564327239990234,0.0,22.5,0.0,3.058791160583496,-0.14340877532958984,0.0,29.0,0.0,2.945065498352051,-0.04756450653076172,0.0,29.5,,,,,,,,,,,,,,,,,,,,,,,,,,,,,,
0.0,-0.22299686074256897,2.9398059844970703,3.313321161489344e-14,-0.3015049695968628,-0.5424212217330933,1.4020845573968488e-13,-0.6163182854652405,-0.45028871297836304,1.206578646674103e-13,0.0,3.097414970397949,-1.7960071563720703,-0.7670041918754578,14.75,0.0,3.0727386474609375,-1.4716386795043945,-0.7670041918754578,17.75,0.0,3.0155181884765625,-0.9555816650390625,-0.5752531439065933,20.75,0.0,3.101348876953125,-1.0693073272705078,-0.7670041918754578,21.5,0.0,3.587007522583008,-1.2956857681274414,-0.3835020959377289,12.25,0.0,2.726912498474121,0.07581710815429688,-0.5752531439065933,26.25,0.0,2.8252601623535156,-0.0171661376953125,-0.5752531439065933,21.5,0.0,2.705812454223633,0.09942054748535156,-0.5752531439065933,23.25,0.0,3.222227096557617,-1.1676549911499023,0.0,22.25,0.0,3.0562877655029297,-0.14019012451171875,0.0,28.5,,,,,,,,,,,,,,,,,,,,,,,,,,,,,,
0.0,-0.3303702473640442,2.887078046798706,3.676848728912871e-14,-0.488222599029541,-0.5951991081237793,1.391834781108714e-13,-0.721886157989502,-0.47003260254859924,1.1269428451402344e-13,0.0,2.8502941131591797,-1.3529062271118164,-0.7670041918754578,20.5,0.0,3.001570701599121,-1.3321638107299805,-0.7670041918754578,20.5,0.0,3.159642219543457,-1.1930465698242188,-0.7670041918754578,16.75,0.0,2.8481483459472656,-0.5067586898803711,-0.3835020959377289,19.75,0.0,2.7354955673217773,-0.2263784408569336,-0.5752531439065933,20.75,0.0,2.648591995239258,0.1004934310913086,-0.5752531439065933,19.25,0.0,3.179311752319336,-1.6025304794311523,0.0,19.0,0.0,3.193974494934082,-1.175522804260254,0.0,22.0,0.0,3.063797950744629,-0.1341104507446289,0.0,26.0,,,,,,,,,,,,,,,,,,,,,,,,,,,,,,,,,,,
0.0,-0.49640771746635437,2.824277877807617,3.605393368295677e-14,-0.7531387805938721,-0.6612352728843689,1.3208436623092512e-13,-0.8840329647064209,-0.503239631652832,1.0143126708559227e-13,0.0,3.049135208129883,-1.417994499206543,-0.7670041918754578,14.5,0.0,2.83205509185791,-1.2123584747314453,-1.1505062878131866,24.5,0.0,2.9425621032714844,-1.2792348861694336,-0.7670041918754578,19.25,0.0,2.800583839416504,-0.8658170700073242,-0.19175104796886444,24.5,0.0,2.7240514755249023,-0.4602670669555664,-0.19175104796886444,24.25,0.0,2.6482343673706055,-0.1366138458251953,-0.5752531439065933,22.5,0.0,2.568840980529785,-0.005364418029785156,-0.5752531439065933,15.0,0.0,3.1778812408447266,-1.587510108947754,0.0,19.0,0.0,3.176450729370117,-1.2434720993041992,0.0,22.25,,,,,,,,,,,,,,,,,,,,,,,,,,,,,,,,,,,
0.0,-0.6105067729949951,2.7366695404052734,3.6961698892529204e-14,-0.8895452618598938,-0.775745153427124,1.2624474490970095e-13,-0.9157790541648865,-0.5974336862564087,9.142885829937358e-14,0.0,2.8284788131713867,-1.775979995727539,-1.72575943171978,15.75,0.0,2.8481483459472656,-1.4562606811523438,-0.9587552398443222,19.75,0.0,2.831697463989258,-1.1054277420043945,-1.1505062878131866,24.0,0.0,2.7658939361572266,-0.9047985076904297,-0.5752531439065933,29.0,0.0,2.685427665710449,-0.719904899597168,-0.5752531439065933,28.0,0.0,2.595663070678711,-0.3676414489746094,-0.7670041918754578,26.0,0.0,2.5066137313842773,-0.17881393432617188,-0.7670041918754578,21.75,0.0,3.1485557556152344,-1.2788772583007812,0.0,22.75,0.0,3.1120777130126953,-1.1143684387207031,0.0,22.5,,,,,,,,,,,,,,,,,,,,,,,,,,,,,,,,,,,
0.0,-0.7254069447517395,2.6150200366973877,3.372194694708022e-14,-0.9867587089538574,-0.9722846746444702,1.1438869599797452e-13,-0.894702672958374,-0.7990849018096924,7.804085204671588e-14,0.0,2.7344226837158203,-1.6036033630371094,-1.5340083837509155,18.5,0.0,2.892136573791504,-1.7055273056030273,-0.19175104796886444,13.75,0.0,2.6324987411499023,-1.2788772583007812,-1.1505062878131866,26.25,0.0,2.6596784591674805,-1.4312267303466797,-1.1505062878131866,23.5,0.0,2.541661262512207,-1.0943412780761719,-1.1505062878131866,27.25,0.0,2.3496150970458984,-0.33080577850341797,-0.9587552398443222,25.75,0.0,2.404332160949707,-0.2657175064086914,-0.9587552398443222,31.5,0.0,2.461552619934082,-0.35583972930908203,-0.9587552398443222,29.75,0.0,3.0469894409179688,-1.2595653533935547,0.0,21.25,0.0,3.1467676162719727,-1.318216323852539,0.0,21.25,0.0,2.8384923934936523,-0.49316883087158203,0.0,27.5,,,,,,,,,,,,,,,,,,,,,,,,,
0.0,-0.8184324502944946,2.494018077850342,3.147357591562483e-14,-1.042881965637207,-1.1093043088912964,1.0394309924496165e-13,-0.852472186088562,-0.8817262053489685,6.639351205319291e-14,0.0,2.779841423034668,-1.5778541564941406,0.19175104796886444,14.0,0.0,2.5491714477539062,-1.2563467025756836,0.19175104796886444,21.25,0.0,2.647876739501953,-1.4219284057617188,0.19175104796886444,17.0,0.0,2.5069713592529297,-1.1086463928222656,-1.342257335782051,26.0,0.0,2.43222713470459,-0.8794069290161133,-1.342257335782051,25.75,0.0,2.290964126586914,-0.4756450653076172,-1.342257335782051,25.75,0.0,2.147197723388672,-0.23066997528076172,-1.9175104796886444,12.0,0.0,2.191901206970215,-0.3243684768676758,-1.342257335782051,27.0,0.0,3.0219554901123047,-1.580357551574707,0.0,18.75,,,,,,,,,,,,,,,,,,,,,,,,,,,,,,,,,,,
0.0,-1.049617052078247,2.371460199356079,3.1269403705886864e-14,-1.3718228340148926,-1.1887277364730835,9.638951691936376e-14,-1.0870263576507568,-0.8393417596817017,5.739338041280129e-14,0.0,2.2319555282592773,-1.267075538635254,-1.342257335782051,21.0,0.0,2.5316476821899414,-1.372218132019043,0.5752531439065933,19.25,0.0,2.6546716690063477,-1.4895200729370117,0.3835020959377289,16.5,0.0,2.7827024459838867,-1.6372203826904297,0.19175104796886444,14.25,0.0,1.969456672668457,-0.9287595748901367,-0.3835020959377289,27.5,0.0,2.044558525085449,-1.066446304321289,-0.9587552398443222,23.75,0.0,2.433300018310547,-1.2978315353393555,0.5752531439065933,19.25,,,,,,,,,,,,,,,,,,,,,,,,,,,,,,,,,,,,,,,,,,,,,
0.0,-1.1834893226623535,2.2215840816497803,3.012131153225586e-14,-1.4452660083770752,-1.3330880403518677,8.703832061552133e-14,-1.0377626419067383,-0.9194720983505249,4.7503396615605764e-14,0.0,1.9311904907226562,-1.0460615158081055,-0.9587552398443222,30.75,0.0,1.9401311874389648,-1.1948347091674805,-0.19175104796886444,27.5,0.0,2.078890800476074,-1.268148422241211,-1.342257335782051,18.25,0.0,2.532362937927246,-1.4526844024658203,-0.3835020959377289,15.0,0.0,2.585291862487793,-1.6061067581176758,-0.3835020959377289,13.0,0.0,1.931905746459961,-0.9319782257080078,-0.9587552398443222,16.0,0.0,2.408266067504883,-1.2316703796386719,-0.3835020959377289,12.25,0.0,2.9894113540649414,-1.8990039825439453,0.0,12.5,0.0,2.7605295181274414,-1.2885332107543945,0.0,20.25,0.0,2.920389175415039,-1.420140266418457,0.0,19.75,0.0,2.980828285217285,-1.605391502380371,0.0,17.25,,,,,,,,,,,,,,,,,,,,,,,,,
0.0,-1.2559350728988647,2.085177421569824,2.940007314206419e-14,-1.3799859285354614,-1.4323036670684814,7.837367500861461e-14,-0.8608778715133667,-0.950778067111969,3.8626457447062806e-14,0.0,1.937270164489746,-1.6003847122192383,-0.7670041918754578,13.75,0.0,2.4923086166381836,-1.531362533569336,-0.9587552398443222,12.75,0.0,2.668619155883789,-1.5202760696411133,-0.9587552398443222,12.0,0.0,1.7251968383789062,-0.8279085159301758,-0.7670041918754578,15.5,0.0,1.8453598022460938,-0.9706020355224609,-0.7670041918754578,22.25,0.0,1.7963647842407227,-0.8053779602050781,-0.7670041918754578,17.75,0.0,2.7730464935302734,-1.2685060501098633,0.0,20.75,0.0,2.8917789459228516,-1.4144182205200195,0.0,20.0,,,,,,,,,,,,,,,,,,,,,,,,,,,,,,,,,,,,,,,,
0.0,-1.3553532361984253,1.941157341003418,2.7836607869560943e-14,-1.385508418083191,-1.511747121810913,6.88977480210913e-14,-0.785269021987915,-0.9358208179473877,2.984441984993022e-14,0.0,1.8231868743896484,-1.1944770812988281,0.19175104796886444,22.5,0.0,1.9462108612060547,-1.3250112533569336,-0.9587552398443222,20.25,0.0,2.0853281021118164,-1.3843774795532227,-1.1505062878131866,16.75,0.0,2.1822452545166016,-1.4955997467041016,-1.342257335782051,12.75,0.0,1.6129016876220703,-0.9920597076416016,-0.19175104796886444,13.0,0.0,1.7234086990356445,-1.0521411895751953,0.19175104796886444,16.0,0.0,2.7576684951782227,-1.2638568878173828,0.0,19.75,0.0,2.86710262298584,-1.455545425415039,0.0,18.5,,,,,,,,,,,,,,,,,,,,,,,,,,,,,,,,,,,,,,,,
0.0,-1.4575839042663574,1.7950782775878906,2.704038504068064e-14,-1.4030230045318604,-1.567730188369751,6.09868736458144e-14,-0.740143358707428,-0.8874536752700806,2.2698565303822665e-14,0.0,1.6765594482421875,-1.3450384140014648,-0.19175104796886444,20.5,0.0,1.7888545989990234,-1.4727115631103516,-0.3835020959377289,17.0,0.0,1.944422721862793,-1.4902353286743164,-0.3835020959377289,12.5,0.0,1.6819238662719727,-1.087188720703125,-0.19175104796886444,18.5,0.0,1.6025304794311523,-0.985264778137207,-0.19175104796886444,16.0,,,,,,,,,,,,,,,,,,,,,,,,,,,,,,,,,,,,,,,,,,,,,,,,,,,,,,,
0.0,0.2935628294944763,3.0003106594085693,6.935662473213453e-16,0.7127999067306519,-0.5095104575157166,2.111942611014695e-15,0.03753401339054108,-0.6411415338516235,1.6094517500008692e-15,0.0,3.141045570373535,-0.5364418029785156,-0.19175104796886444,23.0,0.0,3.5355091094970703,-0.3662109375,-0.19175104796886444,14.75,0.0,3.3963918685913086,-0.2238750457763672,-0.19175104796886444,17.5,0.0,2.9876232147216797,-0.057220458984375,-0.3835020959377289,29.25,0.0,2.799510955810547,0.16736984252929688,-0.3835020959377289,18.75,0.0,2.871394157409668,0.18167495727539062,-0.3835020959377289,30.75,0.0,2.902507781982422,0.1659393310546875,-0.3835020959377289,33.25,0.0,3.368854522705078,-1.6683340072631836,0.0,12.5,0.0,3.163576126098633,-1.009225845336914,0.0,26.5,0.0,3.330230712890625,-0.7878541946411133,0.0,25.5,0.0,2.8030872344970703,0.17595291137695312,0.0,12.5,0.0,2.9125213623046875,0.21314620971679688,0.0,26.25,0.0,2.9611587524414062,0.15342235565185547,0.0,31.75,0.0,3.0122995376586914,0.12946128845214844,0.0,29.75,,,,,,,,,,
0.0,0.22972090542316437,2.972832202911377,7.166349778815794e-16,0.5165543556213379,-0.5082333087921143,2.0575590723944694e-15,-0.11686831712722778,-0.5644038319587708,1.4867610392943335e-15,0.0,3.1685829162597656,-0.904083251953125,-0.3835020959377289,26.0,0.0,3.252267837524414,-0.9552240371704102,-0.3835020959377289,22.0,0.0,3.382086753845215,-0.8962154388427734,-0.19175104796886444,15.25,0.0,3.924250602722168,-0.9090900421142578,-0.19175104796886444,13.25,0.0,3.050565719604492,-0.3941059112548828,-0.3835020959377289,25.25,0.0,2.9164552688598633,-0.1773834228515625,-0.3835020959377289,27.75,0.0,2.8603076934814453,0.0007152557373046875,-0.3835020959377289,25.5,0.0,2.7723312377929688,0.13840198516845703,-0.3835020959377289,16.0,0.0,3.1070709228515625,-1.1143684387207031,0.0,26.75,0.0,3.254055976867676,-1.0224580764770508,0.0,24.25,0.0,2.8002262115478516,0.22602081298828125,0.0,14.75,0.0,2.9032230377197266,0.20992755889892578,0.0,27.75,0.0,2.943277359008789,0.18167495727539062,0.0,32.75,0.0,2.9976367950439453,0.1659393310546875,0.0,29.75,,,,,,,,,,
0.0,0.21671947836875916,2.9268648624420166,7.696117535950931e-16,0.4089334309101105,-0.534016489982605,2.029791426559342e-15,-0.19152036309242249,-0.5217944383621216,1.3858458515958114e-15,0.0,2.9761791229248047,-1.2331008911132812,-0.3835020959377289,19.25,0.0,3.163933753967285,-1.1551380157470703,-0.3835020959377289,12.5,0.0,2.967238426208496,-0.7596015930175781,-0.3835020959377289,22.25,0.0,2.8896331787109375,-0.1201629638671875,-0.3835020959377289,25.0,0.0,2.7512311935424805,0.08475780487060547,-0.3835020959377289,17.25,0.0,2.823472023010254,0.02181529998779297,-0.3835020959377289,24.5,0.0,3.2072067260742188,-1.1265277862548828,0.0,22.0,0.0,3.0333995819091797,-0.38552284240722656,0.0,27.5,0.0,2.8542280197143555,0.17023086547851562,0.0,28.75,0.0,2.902507781982422,0.10228157043457031,0.0,30.75,,,,,,,,,,,,,,,,,,,,,,,,,,,,,,
0.0,0.12066121399402618,2.8913426399230957,7.536826637472656e-16,0.17942862212657928,-0.5492817759513855,1.9176739104960266e-15,-0.3607748746871948,-0.489879310131073,1.2408810331126846e-15,0.0,3.188610076904297,-1.0453462600708008,-0.5752531439065933,20.25,0.0,3.060579299926758,-0.7445812225341797,-0.5752531439065933,22.25,0.0,3.1832456588745117,-0.8676052093505859,-0.5752531439065933,25.25,0.0,2.7469396591186523,-0.0025033950805664062,-0.5752531439065933,20.0,0.0,2.7894973754882812,-0.051856040954589844,-0.5752531439065933,26.5,0.0,2.850651741027832,-0.08618831634521484,-0.5752531439065933,24.75,0.0,2.820611000061035,0.1609325408935547,0.0,29.25,0.0,2.880692481994629,0.12123584747314453,0.0,29.5,,,,,,,,,,,,,,,,,,,,,,,,,,,,,,,,,,,,,,,,
0.0,-0.007324501872062683,2.854377269744873,6.579713817788779e-16,-0.08273980021476746,-0.5665019154548645,1.7137428933897917e-15,-0.5442266464233398,-0.46743059158325195,1.0502228105316877e-15,0.0,3.1374692916870117,-1.2989044189453125,-0.5752531439065933,13.75,0.0,2.9904842376708984,-0.7549524307250977,-0.7670041918754578,22.0,0.0,3.1385421752929688,-0.722050666809082,-0.5752531439065933,17.25,0.0,2.8574466705322266,-0.2968311309814453,-0.5752531439065933,22.25,0.0,2.5981664657592773,0.0768899917602539,-0.5752531439065933,13.25,0.0,2.6865005493164062,0.07939338684082031,-0.5752531439065933,23.75,0.0,2.7265548706054688,0.03898143768310547,-0.5752531439065933,26.0,0.0,3.2132863998413086,-1.0625123977661133,0.0,22.25,,,,,,,,,,,,,,,,,,,,,,,,,,,,,,,,,,,,,,,,
0.0,-0.05511295795440674,2.788961172103882,6.237800498300108e-16,-0.19743680953979492,-0.6214221119880676,1.5798970764052721e-15,-0.5944657921791077,-0.4760071039199829,9.099278964450107e-16,0.0,2.8821229934692383,-1.1168718338012695,-0.9587552398443222,21.75,0.0,2.9958486557006836,-1.192331314086914,-0.7670041918754578,15.75,0.0,3.1936168670654297,-1.1447668075561523,-0.7670041918754578,13.0,0.0,2.80916690826416,-0.4642009735107422,-0.3835020959377289,21.5,0.0,2.656102180480957,0.028252601623535156,-0.5752531439065933,27.5,0.0,2.56955623626709,0.09548664093017578,-0.9587552398443222,22.25,0.0,2.6117563247680664,0.08797645568847656,-0.5752531439065933,28.75,0.0,3.225088119506836,-0.9702444076538086,0.0,22.25,0.0,3.3981800079345703,-0.7807016372680664,0.0,15.25,,,,,,,,,,,,,,,,,,,,,,,,,,,,,,,,,,,
0.0,-0.2179647982120514,2.7090959548950195,5.58451892619194e-16,-0.48758363723754883,-0.7322149872779846,1.4046601474202239e-15,-0.7874616384506226,-0.5799433588981628,7.488217004816508e-16,0.0,2.869248390197754,-1.1154413223266602,-1.1505062878131866,22.25,0.0,2.8907060623168945,-1.2881755828857422,-1.1505062878131866,17.75,0.0,2.812027931213379,-0.9788274765014648,-1.1505062878131866,23.0,0.0,2.3517608642578125,-0.3300905227661133,-1.72575943171978,12.25,0.0,2.699732780456543,-0.3408193588256836,-0.3835020959377289,21.5,0.0,2.4994611740112305,-0.12087821960449219,-0.7670041918754578,19.75,0.0,2.5767087936401367,-0.10657310485839844,-0.7670041918754578,23.75,,,,,,,,,,,,,,,,,,,,,,,,,,,,,,,,,,,,,,,,,,,,,
0.0,-0.43452996015548706,2.616518020629883,4.842358716323971e-16,-0.8353763222694397,-0.8716959953308105,1.2175904857993883e-15,-1.0098772048950195,-0.7158949375152588,5.871686388717197e-16,0.0,2.670407295227051,-1.2388229370117188,-1.342257335782051,25.25,0.0,2.6911497116088867,-1.3178586959838867,-1.342257335782051,22.5,0.0,2.832770347595215,-1.3343095779418945,-1.1505062878131866,14.5,0.0,2.6192665100097656,-1.0532140731811523,-0.19175104796886444,25.25,0.0,2.292037010192871,-0.4162788391113281,-1.1505062878131866,21.0,0.0,2.429366111755371,-0.14770030975341797,-0.9587552398443222,25.75,0.0,2.504110336303711,-0.23174285888671875,-0.9587552398443222,25.25,0.0,3.223299980163574,-1.4001131057739258,0.0,13.25,0.0,2.54058837890625,-0.008940696716308594,0.0,22.75,,,,,,,,,,,,,,,,,,,,,,,,,,,,,,,,,,,
0.0,-0.6617565155029297,2.5287458896636963,4.347060964977347e-16,-1.1804015636444092,-0.9519919753074646,1.0643096037192372e-15,-1.2214035987854004,-0.7364177703857422,4.557756175442118e-16,0.0,2.639293670654297,-1.4712810516357422,-0.19175104796886444,19.75,0.0,2.758026123046875,-1.5692710876464844,-0.19175104796886444,15.5,0.0,2.6110410690307617,-1.2305974960327148,-0.19175104796886444,22.25,0.0,2.5380849838256836,-1.1043548583984375,-0.19175104796886444,25.75,0.0,2.464771270751953,-0.754237174987793,-1.1505062878131866,24.5,0.0,2.251267433166504,-0.4445314407348633,-1.1505062878131866,23.5,0.0,2.344965934753418,-0.4216432571411133,-1.1505062878131866,25.75,0.0,3.1943321228027344,-1.4322996139526367,0.0,12.25,,,,,,,,,,,,,,,,,,,,,,,,,,,,,,,,,,,,,,,,
0.0,-0.9513695240020752,2.422109365463257,3.6974316930586215e-16,-1.6148390769958496,-1.0407792329788208,8.924762648744936e-16,-1.5050512552261353,-0.7483416795730591,3.1890732230609284e-16,0.0,2.6668310165405273,-1.5603303909301758,0.19175104796886444,20.25,0.0,2.8134584426879883,-1.5971660614013672,0.19175104796886444,19.75,0.0,2.9325485229492188,-1.6568899154663086,0.19175104796886444,16.0,0.0,2.056717872619629,-0.9312629699707031,-0.3835020959377289,28.5,0.0,2.234816551208496,-1.16729736328125,-1.342257335782051,22.25,0.0,2.482295036315918,-1.2127161026000977,-1.342257335782051,19.25,0.0,2.5745630264282227,-1.3486146926879883,0.9587552398443222,20.0,0.0,1.9959211349487305,-0.7910728454589844,-0.3835020959377289,13.25,0.0,1.9973516464233398,-0.8507966995239258,-0.3835020959377289,33.25,0.0,2.117156982421875,-0.7188320159912109,0.0,30.0,0.0,2.582073211669922,-0.1938343048095703,0.0,29.25,,,,,,,,,,,,,,,,,,,,,,,,,
0.0,-1.1145646572113037,2.2950336933135986,3.4560392144919667e-16,-1.7320544719696045,-1.1685445308685303,7.73122387524107e-16,-1.4578595161437988,-0.8247207999229431,2.2081606304437775e-16,0.0,2.06601619720459,-1.2960433959960938,-1.342257335782051,17.5,0.0,2.5724172592163086,-1.3933181762695312,-0.19175104796886444,14.0,0.0,2.670764923095703,-1.5338659286499023,-0.5752531439065933,13.25,0.0,2.8477907180786133,-1.6003847122192383,-0.19175104796886444,12.75,0.0,1.9104480743408203,-0.8690357208251953,-0.5752531439065933,12.5,0.0,2.0366907119750977,-1.0364055633544922,-0.19175104796886444,27.0,0.0,2.018451690673828,-0.9108781814575195,-0.5752531439065933,28.75,0.0,2.5681257247924805,-0.23281574249267578,0.0,29.0,,,,,,,,,,,,,,,,,,,,,,,,,,,,,,,,,,,,,,,,
0.0,-1.2238696813583374,2.1659955978393555,3.266704851467969e-16,-1.700197458267212,-1.2894501686096191,6.624429745865517e-16,-1.263425350189209,-0.897423505783081,1.3316763476134451e-16,0.0,1.9229650497436523,-1.1944770812988281,-0.3835020959377289,24.25,0.0,2.0906925201416016,-1.2406110763549805,-0.3835020959377289,15.75,0.0,2.5616884231567383,-1.4945268630981445,-0.9587552398443222,14.5,0.0,2.671480178833008,-1.4483928680419922,-0.7670041918754578,14.25,0.0,1.9158124923706055,-1.0077953338623047,-0.9587552398443222,28.0,0.0,1.9286870956420898,-0.8153915405273438,-0.9587552398443222,17.0,0.0,2.557039260864258,-0.2503395080566406,0.0,28.75,,,,,,,,,,,,,,,,,,,,,,,,,,,,,,,,,,,,,,,,,,,,,
0.0,-1.2980138063430786,2.0318994522094727,2.96509653598321e-16,-1.5951753854751587,-1.3871937990188599,5.41663487846377e-16,-1.0217392444610596,-0.9298727512359619,4.456675101634832e-17,0.0,2.1075010299682617,-1.352548599243164,-0.5752531439065933,18.5,0.0,2.169370651245117,-1.5352964401245117,-1.1505062878131866,16.0,0.0,1.600027084350586,-0.8854866027832031,-0.7670041918754578,15.75,0.0,1.731276512145996,-0.9870529174804688,-0.7670041918754578,15.25,0.0,1.9640922546386719,-1.0145902633666992,-0.5752531439065933,24.75,0.0,2.0688772201538086,-1.0925531387329102,-0.5752531439065933,21.5,,,,,,,,,,,,,,,,,,,,,,,,,,,,,,,,,,,,,,,,,,,,,,,,,,
0.0,-1.3943612575531006,1.8759559392929077,2.8413386696422523e-16,-1.5447382926940918,-1.5013335943222046,4.528941702763303e-16,-0.8605827689170837,-0.9660701751708984,-1.716909976049355e-17,0.0,1.7162561416625977,-1.3350248336791992,-0.7670041918754578,22.0,0.0,1.8213987350463867,-1.3861656188964844,-0.7670041918754578,16.75,0.0,1.5796422958374023,-0.9244680404663086,-0.5752531439065933,15.75,0.0,1.684427261352539,-1.0499954223632812,-0.5752531439065933,13.75,,,,,,,,,,,,,,,,,,,,,,,,,,,,,,,,,,,,,,,,,,,,,,,,,,,,,,,,,,,,
0.0,-1.5103158950805664,1.739353895187378,2.613273989802848e-16,-1.5654677152633667,-1.5420174598693848,3.5804267968896487e-16,-0.8139109015464783,-0.8965107202529907,-7.735899629458812e-17,0.0,1.622915267944336,-1.2996196746826172,-0.19175104796886444,19.5,0.0,1.6547441482543945,-1.4026165008544922,-0.19175104796886444,25.75,0.0,1.6025304794311523,-1.0575056076049805,0.3835020959377289,14.0,0.0,1.896500587463379,-1.2427568435668945,0.19175104796886444,20.0,0.0,2.852797508239746,-1.4955997467041016,0.0,14.0,,,,,,,,,,,,,,,,,,,,,,,,,,,,,,,,,,,,,,,,,,,,,,,,,,,,,,,
0.0,-1.562589168548584,1.6186362504959106,2.2968756849656407e-16,-1.4218528270721436,-1.5553951263427734,2.578536639240357e-16,-0.5861347913742065,-0.8336437344551086,-1.373914969017261e-16,0.0,1.4677047729492188,-1.1612176895141602,0.19175104796886444,15.25,0.0,1.592874526977539,-1.2527704238891602,-1.1505062878131866,16.25,0.0,1.660466194152832,-1.3625621795654297,-1.1505062878131866,24.0,0.0,1.7158985137939453,-1.4330148696899414,0.19175104796886444,17.0,,,,,,,,,,,,,,,,,,,,,,,,,,,,,,,,,,,,,,,,,,,,,,,,,,,,,,,,,,,,
0.0,-1.5562407970428467,1.576099157333374,1.8377615929389445e-16,-1.2175527811050415,-1.3919368982315063,1.4955466503117123e-16,-0.3599635064601898,-0.5829342603683472,-1.9691983423423545e-16,0.0,1.479506492614746,-1.083970069885254,-0.19175104796886444,12.25,0.0,1.5406608581542969,-1.1107921600341797,-0.19175104796886444,20.0,0.0,1.6068220138549805,-1.129746437072754,-0.19175104796886444,20.0,0.0,1.707315444946289,-1.1980533599853516,-0.19175104796886444,22.25,0.0,1.8814802169799805,-1.215219497680664,-0.19175104796886444,15.5,0.0,1.749873161315918,-1.0167360305786133,0.0,15.0,0.0,2.4400949478149414,-1.250624656677246,0.0,18.5,0.0,2.544522285461426,-1.3432502746582031,0.0,18.5,,,,,,,,,,,,,,,,,,,,,,,,,,,,,,,,,,,,,,,,
0.0,-1.6061382293701172,1.5405418872833252,1.4558804944384874e-16,-1.1848489046096802,-1.2053759098052979,6.210517699417945e-17,-0.35935792326927185,-0.30620503425598145,-2.385859672448257e-16,0.0,1.4630556106567383,-1.1404752731323242,0.19175104796886444,13.0,0.0,1.5088319778442383,-1.1805295944213867,0.19175104796886444,21.5,0.0,1.558542251586914,-1.2148618698120117,0.19175104796886444,22.75,0.0,1.6765594482421875,-1.2402534484863281,0.9587552398443222,23.25,0.0,1.7895698547363281,-1.2978315353393555,0.9587552398443222,16.25,0.0,1.6837120056152344,-1.1004209518432617,0.0,16.75,0.0,1.5925168991088867,-0.9788274765014648,0.0,15.5,,,,,,,,,,,,,,,,,,,,,,,,,,,,,,,,,,,,,,,,,,,,,
0.0,-1.6537516117095947,1.519053339958191,1.1787854447961658e-16,-1.1371630430221558,-1.0132824182510376,-3.810953430929807e-18,-0.32772135734558105,-0.06348752975463867,-2.6431692235828004e-16,0.0,1.5517473220825195,-1.180887222290039,0.7670041918754578,19.75,0.0,1.5578269958496094,-1.1959075927734375,0.7670041918754578,24.0,0.0,1.5850067138671875,-1.2570619583129883,0.7670041918754578,24.25,0.0,1.8707513809204102,-1.2563467025756836,-0.3835020959377289,13.5,0.0,2.624630928039551,-0.8883476257324219,0.19175104796886444,16.75,0.0,2.6983022689819336,-0.7921457290649414,-0.7670041918754578,14.5,0.0,1.667618751525879,-1.284956932067871,0.0,29.25,0.0,1.5724897384643555,-1.0457038879394531,0.0,18.0,0.0,1.613616943359375,-1.1540651321411133,0.0,20.0,,,,,,,,,,,,,,,,,,,,,,,,,,,,,,,,,,,
0.0,-1.6915563344955444,1.48140287399292,9.582727916004725e-17,-1.0415723323822021,-0.8831242918968201,-5.640535332576235e-17,-0.21724867820739746,0.07363353669643402,-2.8049496048326156e-16,0.0,1.530289649963379,-1.1887550354003906,0.19175104796886444,14.0,0.0,1.5560388565063477,-1.233816146850586,0.19175104796886444,18.5,0.0,1.5653371810913086,-1.363992691040039,0.19175104796886444,23.0,0.0,2.4966001510620117,-1.0085105895996094,0.3835020959377289,13.5,0.0,2.604961395263672,-0.9752511978149414,0.3835020959377289,19.75,0.0,2.622842788696289,-0.9741783142089844,-0.19175104796886444,17.5,0.0,1.5832185745239258,-1.2166500091552734,0.0,22.75,0.0,1.589655876159668,-1.3689994812011719,0.0,31.0,0.0,1.6983747482299805,-1.4687776565551758,0.0,20.5,0.0,1.569986343383789,-1.0739564895629883,0.0,18.75,,,,,,,,,,,,,,,,,,,,,,,,,,,,,,
0.0,-1.7320526838302612,1.4667924642562866,7.743497779693479e-17,-0.9461747407913208,-0.7367929220199585,-9.881461216378046e-17,-0.1060154139995575,0.20271435379981995,-2.8929150351961587e-16,0.0,1.6808509826660156,-1.3221502304077148,0.19175104796886444,17.25,0.0,1.777052879333496,-1.386880874633789,-0.19175104796886444,13.25,0.0,2.6886463165283203,-0.8879899978637695,0.3835020959377289,12.75,0.0,2.7222633361816406,-0.9537935256958008,0.3835020959377289,13.5,0.0,1.557469367980957,-1.129746437072754,0.0,17.75,,,,,,,,,,,,,,,,,,,,,,,,,,,,,,,,,,,,,,,,,,,,,,,,,,,,,,,
0.0,-0.14167463779449463,3.0447185039520264,1.6279303229931485e-17,-0.23941150307655334,-0.37596264481544495,5.0871478631835644e-17,-0.5503666400909424,-0.23652175068855286,3.3254553213873234e-17,0.0,3.0312538146972656,-0.9673833847045898,-0.3835020959377289,16.25,0.0,3.2329559326171875,-0.8311271667480469,-0.19175104796886444,25.0,0.0,3.2608509063720703,-0.6633996963500977,-0.19175104796886444,18.25,0.0,2.8581619262695312,0.06759166717529297,-0.19175104796886444,23.5,0.0,2.7855634689331055,0.1055002212524414,-0.19175104796886444,12.5,0.0,2.8399229049682617,0.11479854583740234,-0.19175104796886444,24.75,0.0,3.1592845916748047,-0.7420778274536133,0.0,26.75,0.0,3.029465675354004,-0.04756450653076172,0.0,30.25,,,,,,,,,,,,,,,,,,,,,,,,,,,,,,,,,,,,,,,,
0.0,-0.2697572708129883,3.0222063064575195,1.5139511211559966e-17,-0.457495778799057,-0.3743951916694641,4.6891068980618224e-17,-0.6845288872718811,-0.21338960528373718,2.894073352751529e-17,0.0,3.186464309692383,-1.1955499649047852,-0.3835020959377289,18.0,0.0,3.09598445892334,-1.026749610900879,-0.19175104796886444,22.5,0.0,3.3506155014038086,-1.0879039764404297,-0.3835020959377289,14.25,0.0,3.005862236022949,-0.44918060302734375,-0.19175104796886444,23.5,0.0,2.784132957458496,0.048279762268066406,-0.3835020959377289,15.75,0.0,2.853512763977051,0.03218650817871094,-0.3835020959377289,25.75,0.0,2.892136573791504,-0.016450881958007812,-0.3835020959377289,27.0,0.0,2.9507875442504883,0.05221366882324219,0.0,31.5,,,,,,,,,,,,,,,,,,,,,,,,,,,,,,,,,,,,,,,,
0.0,-0.40277794003486633,2.984384059906006,1.567523308091871e-17,-0.6608335375785828,-0.4121980667114258,4.472465979528469e-17,-0.7950372695922852,-0.24654653668403625,2.5879506825301495e-17,0.0,3.0001401901245117,-1.1876821517944336,-0.3835020959377289,19.25,0.0,3.166079521179199,-1.234889030456543,-0.3835020959377289,15.5,0.0,2.9582977294921875,-0.6591081619262695,-0.3835020959377289,22.5,0.0,2.9250383377075195,-0.3515481948852539,-0.5752531439065933,24.75,0.0,2.8842687606811523,-0.2034902572631836,-0.3835020959377289,20.5,0.0,3.1785964965820312,1.3117790222167969,-0.19175104796886444,13.25,0.0,3.260493278503418,1.5485286712646484,-0.19175104796886444,13.75,0.0,2.947211265563965,0.08547306060791016,0.0,31.5,0.0,3.0312538146972656,-0.031113624572753906,0.0,29.25,,,,,,,,,,,,,,,,,,,,,,,,,,,,,,,,,,,
0.0,-0.46439892053604126,2.9535508155822754,1.4566197292083138e-17,-0.7160272002220154,-0.4492179751396179,4.0460077207708355e-17,-0.767670214176178,-0.288247674703598,2.1693347577240085e-17,0.0,3.1585693359375,-1.201629638671875,-0.3835020959377289,19.5,0.0,3.280520439147949,-1.3010501861572266,-0.3835020959377289,13.25,0.0,3.1267404556274414,-1.0535717010498047,-0.3835020959377289,24.25,0.0,3.0469894409179688,-0.7749795913696289,-0.3835020959377289,22.0,0.0,2.865314483642578,0.0776052474975586,-0.5752531439065933,23.75,0.0,2.7397871017456055,0.17774105072021484,-0.5752531439065933,18.5,0.0,2.796292304992676,0.11837482452392578,-0.5752531439065933,24.75,0.0,3.2494068145751953,-0.9273290634155273,0.0,19.75,,,,,,,,,,,,,,,,,,,,,,,,,,,,,,,,,,,,,,,,
0.0,-0.521365225315094,2.9120311737060547,1.4248904043997598e-17,-0.754381537437439,-0.48827534914016724,3.716364997012123e-17,-0.7300877571105957,-0.31621095538139343,1.831980063678342e-17,0.0,3.059864044189453,-1.3729333877563477,-0.19175104796886444,15.75,0.0,3.041982650756836,-1.0271072387695312,-0.3835020959377289,23.0,0.0,3.020167350769043,-0.6730556488037109,-0.3835020959377289,25.5,0.0,2.9343366622924805,-0.2753734588623047,0.3835020959377289,24.25,0.0,2.8030872344970703,-0.036835670471191406,-1.1505062878131866,22.75,0.0,2.7022361755371094,0.12123584747314453,-1.1505062878131866,18.75,,,,,,,,,,,,,,,,,,,,,,,,,,,,,,,,,,,,,,,,,,,,,,,,,,
0.0,-0.5473607182502747,2.841883420944214,1.308685342252289e-17,-0.7106413841247559,-0.6111555099487305,3.270198994724291e-17,-0.6104753017425537,-0.4687954783439636,1.4337739933063343e-17,0.0,3.1042098999023438,-1.2084245681762695,0.19175104796886444,15.0,0.0,2.9937028884887695,-0.9080171585083008,-0.7670041918754578,25.75,0.0,3.040194511413574,-0.9795427322387695,-0.7670041918754578,21.5,0.0,2.865314483642578,-0.8429288864135742,-0.7670041918754578,21.75,0.0,2.565622329711914,0.07724761962890625,-1.1505062878131866,16.75,0.0,2.6181936264038086,0.023603439331054688,-1.1505062878131866,23.5,0.0,2.685070037841797,-0.05221366882324219,-1.1505062878131866,22.25,0.0,3.198981285095215,-1.4612674713134766,0.0,14.25,0.0,3.197908401489258,-1.090407371520996,0.0,20.75,,,,,,,,,,,,,,,,,,,,,,,,,,,,,,,,,,,
0.0,-0.6636314392089844,2.7783026695251465,1.2045996341315777e-17,-0.8351793885231018,-0.6876952648162842,2.8550552432574027e-17,-0.6576050519943237,-0.5242660641670227,1.080958797303684e-17,0.0,2.7794837951660156,-1.1268854141235352,-0.9587552398443222,15.0,0.0,2.9207468032836914,-1.2409687042236328,0.19175104796886444,19.75,0.0,3.007650375366211,-1.2516975402832031,-0.3835020959377289,18.0,0.0,3.162503242492676,-1.1490583419799805,-0.3835020959377289,15.25,0.0,2.5606155395507812,-0.2968311309814453,-0.9587552398443222,17.0,0.0,2.6693344116210938,-0.3676414489746094,-0.9587552398443222,16.5,0.0,2.4672746658325195,-0.21886825561523438,-0.9587552398443222,15.25,,,,,,,,,,,,,,,,,,,,,,,,,,,,,,,,,,,,,,,,,,,,,
0.0,-0.756523609161377,2.703164577484131,1.0235565159775054e-17,-0.8900869488716125,-0.7905346155166626,2.348160783682255e-17,-0.630889892578125,-0.618614137172699,6.8766969528784474e-18,0.0,2.651095390319824,-1.2259483337402344,-0.9587552398443222,27.0,0.0,2.725839614868164,-1.270294189453125,-0.9587552398443222,22.25,0.0,2.6324987411499023,-1.1032819747924805,-0.9587552398443222,24.25,0.0,2.964019775390625,-1.1655092239379883,-0.19175104796886444,14.75,0.0,3.1735897064208984,-1.2996196746826172,-0.19175104796886444,12.5,0.0,3.2891035079956055,-1.48773193359375,-0.19175104796886444,12.5,0.0,2.566695213317871,-0.10085105895996094,-0.7670041918754578,18.5,0.0,2.368927001953125,-0.0017881393432617188,-0.7670041918754578,12.5,0.0,2.436518669128418,0.04470348358154297,-0.7670041918754578,19.0,0.0,3.224015235900879,-1.4244318008422852,0.0,12.25,0.0,3.193974494934082,-1.0428428649902344,0.0,19.25,,,,,,,,,,,,,,,,,,,,,,,,,
0.0,-0.9003583192825317,2.5854380130767822,8.785169302931712e-18,-0.9866752028465271,-1.017983317375183,1.8963087418637333e-17,-0.6102849841117859,-0.8909534215927124,3.4401058216505926e-18,0.0,2.4536848068237305,-1.3418197631835938,-1.1505062878131866,19.5,0.0,2.566695213317871,-1.4040470123291016,-1.72575943171978,17.75,0.0,2.9747486114501953,-1.7148256301879883,-1.1505062878131866,15.5,0.0,3.0319690704345703,-1.8668174743652344,-0.5752531439065933,12.25,0.0,2.7680397033691406,-1.3632774353027344,-1.72575943171978,16.0,0.0,2.9375553131103516,-1.4448165893554688,-0.19175104796886444,15.25,0.0,2.464771270751953,-0.8028745651245117,-1.1505062878131866,17.0,0.0,2.2559165954589844,-0.4774332046508789,-1.1505062878131866,13.75,0.0,2.3746490478515625,-0.3815889358520508,-1.1505062878131866,17.25,0.0,1.6608238220214844,-1.319289207458496,0.0,18.25,0.0,3.0705928802490234,-1.4197826385498047,0.0,19.5,0.0,3.1363964080810547,-1.6379356384277344,0.0,13.75,,,,,,,,,,,,,,,,,,,,
0.0,-0.45983341336250305,3.0030345916748047,-2.035644150789978e-20,-0.11093352735042572,-0.10857883095741272,-2.0179896931373956e-19,0.012835010886192322,-0.02510301023721695,-2.343449979754008e-19,0.0,3.028750419616699,-1.2173652648925781,-0.3835020959377289,21.75,0.0,3.0913352966308594,-1.2774467468261719,-0.19175104796886444,17.5,0.0,2.972245216369629,-1.101851463317871,-0.19175104796886444,20.0,0.0,2.9554367065429688,-0.23818016052246094,-0.19175104796886444,17.25,0.0,2.873539924621582,0.12981891632080078,-0.19175104796886444,13.5,0.0,3.168940544128418,-1.5106201171875,0.0,15.25,0.0,3.0248165130615234,-0.9527206420898438,0.0,24.0,0.0,3.1464099884033203,-1.1065006256103516,0.0,30.0,0.0,3.156423568725586,-1.1594295501708984,0.0,24.5,0.0,2.7816295623779297,0.18203258514404297,0.0,19.0,0.0,2.846360206604004,0.14448165893554688,0.0,28.75,0.0,2.8628110885620117,0.11587142944335938,0.0,30.0,,,,,,,,,,,,,,,,,,,,
0.0,-0.4440409541130066,2.9761435985565186,-3.119638332587865e-20,-0.06027593836188316,-0.15742449462413788,-2.1142825637265178e-19,0.059599533677101135,-0.09168225526809692,-2.2550403988964573e-19,0.0,3.0645132064819336,-1.1358261108398438,-0.5752531439065933,20.5,0.0,3.2236576080322266,-1.0063648223876953,-0.5752531439065933,15.25,0.0,2.9740333557128906,-0.7002353668212891,-0.3835020959377289,19.75,0.0,2.763032913208008,0.02002716064453125,-0.19175104796886444,18.75,0.0,2.8170347213745117,-0.0021457672119140625,-0.19175104796886444,26.25,0.0,2.8502941131591797,-0.04291534423828125,-0.19175104796886444,26.25,0.0,3.1414031982421875,-1.5599727630615234,0.0,15.75,0.0,3.0466318130493164,-0.9123086929321289,0.0,23.75,0.0,3.1496286392211914,-1.100778579711914,0.0,30.0,0.0,3.1603574752807617,-1.1497735977172852,0.0,24.0,,,,,,,,,,,,,,,,,,,,,,,,,,,,,,
0.0,-0.4560071527957916,2.953064203262329,-4.03489364709733e-20,-0.06376894563436508,-0.18682102859020233,-2.1689831129058546e-19,0.0532572865486145,-0.12028524279594421,-2.1458074508466794e-19,0.0,3.0984878540039062,-1.2155771255493164,-0.19175104796886444,15.75,0.0,3.0416250228881836,-1.063227653503418,-0.19175104796886444,24.25,0.0,2.9783248901367188,-0.8050203323364258,-0.19175104796886444,25.25,0.0,2.869248390197754,-0.15807151794433594,0.19175104796886444,27.5,0.0,2.7594566345214844,-0.00858306884765625,-0.5752531439065933,21.5,0.0,2.8030872344970703,-0.04971027374267578,-0.5752531439065933,28.5,0.0,3.1020641326904297,-1.6590356826782227,0.0,15.5,0.0,3.368496894836426,-1.7867088317871094,0.0,12.25,0.0,3.150343894958496,-1.0821819305419922,0.0,30.0,0.0,3.151059150695801,-1.16729736328125,0.0,23.5,0.0,3.0612945556640625,-0.4863739013671875,0.0,24.25,0.0,2.869248390197754,0.06759166717529297,0.0,29.5,,,,,,,,,,,,,,,,,,,,
0.0,-0.45384481549263,2.920046806335449,-4.9590944675671584e-20,-0.0434904620051384,-0.22724387049674988,-2.2071543962478797e-19,0.06746910512447357,-0.15410716831684113,-2.0326315654614085e-19,0.0,2.8592348098754883,-1.7491579055786133,-0.3835020959377289,12.25,0.0,2.927541732788086,-0.9266138076782227,-0.5752531439065933,24.5,0.0,2.978682518005371,-1.1072158813476562,-0.5752531439065933,20.0,0.0,2.8563737869262695,-0.29146671295166016,0.3835020959377289,26.0,0.0,2.720475196838379,-0.033974647521972656,-0.3835020959377289,23.75,0.0,2.7626752853393555,-0.0711679458618164,-0.3835020959377289,28.25,0.0,3.1131505966186523,-1.639723777770996,0.0,15.0,0.0,3.144979476928711,-1.2198686599731445,0.0,22.25,0.0,3.128528594970703,-1.089334487915039,0.0,28.0,0.0,3.023386001586914,-0.7764101028442383,0.0,24.75,0.0,2.866387367248535,0.02288818359375,0.0,29.25,,,,,,,,,,,,,,,,,,,,,,,,,
0.0,-0.4749758839607239,2.8622424602508545,-5.118225922846461e-20,-0.059860099107027054,-0.33986371755599976,-2.1269105097529055e-19,0.05636334791779518,-0.28976815938949585,-1.8489141051785275e-19,0.0,2.9096603393554688,-1.1633634567260742,-0.5752531439065933,21.5,0.0,3.005862236022949,-1.2477636337280273,0.3835020959377289,17.5,0.0,3.1385421752929688,-1.2302398681640625,0.3835020959377289,15.5,0.0,2.829909324645996,-0.4774332046508789,0.19175104796886444,19.25,0.0,2.5795698165893555,-0.0858306884765625,-1.342257335782051,18.5,0.0,2.627849578857422,-0.061511993408203125,-1.342257335782051,25.75,0.0,2.6661157608032227,-0.039696693420410156,-1.342257335782051,25.0,0.0,3.211498260498047,-1.4580488204956055,0.0,15.5,0.0,2.990126609802246,-0.8636713027954102,0.0,25.5,0.0,2.8009414672851562,0.015020370483398438,0.0,29.75,0.0,2.8595924377441406,-0.031828880310058594,0.0,29.5,,,,,,,,,,,,,,,,,,,,,,,,,
0.0,-0.6496759653091431,2.799407958984375,-5.294674210379106e-20,-0.34219804406166077,-0.42702028155326843,-2.044848893861846e-19,-0.1877070516347885,-0.3521779179573059,-1.6766224648474473e-19,0.0,2.8628110885620117,-1.313924789428711,-0.3835020959377289,24.0,0.0,2.875685691833496,-1.3954639434814453,0.19175104796886444,20.75,0.0,2.793431282043457,-1.1501312255859375,-0.3835020959377289,20.75,0.0,3.085970878601074,-1.2656450271606445,0.19175104796886444,13.5,0.0,2.4390220642089844,-0.5693435668945312,-0.7670041918754578,22.75,0.0,2.4443864822387695,-0.6093978881835938,-0.7670041918754578,24.5,0.0,2.570986747741699,-0.7385015487670898,-0.7670041918754578,18.25,0.0,3.1632184982299805,-1.5521049499511719,0.0,14.25,0.0,2.9976367950439453,-0.8733272552490234,0.0,23.25,0.0,2.772688865661621,0.00035762786865234375,0.0,30.5,,,,,,,,,,,,,,,,,,,,,,,,,,,,,,
0.0,-0.7193912267684937,2.7367947101593018,-5.211365167350225e-20,-0.420240581035614,-0.4948927164077759,-1.9214818848359803e-19,-0.2377505600452423,-0.3851034343242645,-1.4876035523199256e-19,0.0,2.6085376739501953,-1.221299171447754,-0.19175104796886444,20.0,0.0,2.9636621475219727,-1.3468265533447266,-0.19175104796886444,15.5,0.0,3.0677318572998047,-1.440882682800293,-0.19175104796886444,12.25,0.0,2.8395652770996094,-1.2094974517822266,-0.19175104796886444,14.75,0.0,2.326369285583496,-0.4895925521850586,-0.3835020959377289,14.0,0.0,2.4404525756835938,-0.44918060302734375,-0.3835020959377289,21.5,0.0,2.653956413269043,-0.46885013580322266,-0.9587552398443222,23.0,0.0,2.555966377258301,-0.35512447357177734,-0.3835020959377289,23.75,,,,,,,,,,,,,,,,,,,,,,,,,,,,,,,,,,,,,,,,
0.0,-0.8592128157615662,2.637270212173462,-5.076532788799521e-20,-0.5951769948005676,-0.6652578711509705,-1.781999458773021e-19,-0.34995684027671814,-0.5642296671867371,-1.2957804975158492e-19,0.0,2.960801124572754,-1.6647577285766602,-0.3835020959377289,13.25,0.0,1.9980669021606445,-1.0378360748291016,-0.5752531439065933,17.25,0.0,2.937912940979004,-1.351475715637207,-0.3835020959377289,16.25,0.0,2.533078193664551,-1.1358261108398438,-1.1505062878131866,24.0,0.0,2.639293670654297,-1.141190528869629,-1.1505062878131866,20.5,0.0,2.7784109115600586,-1.2398958206176758,-1.342257335782051,16.5,0.0,2.4579763412475586,-0.9098052978515625,-0.5752531439065933,22.0,0.0,2.387881278991699,-0.5135536193847656,-0.5752531439065933,20.0,0.0,1.6347169876098633,-1.4491081237792969,0.0,22.75,,,,,,,,,,,,,,,,,,,,,,,,,,,,,,,,,,,
0.0,-0.9901149272918701,2.8911163806915283,-1.4535601021829318e-21,-1.250915288925171,-0.38660722970962524,-2.7640276519169932e-21,-0.804657518863678,-0.3568485379219055,-7.400283704603648e-22,0.0,2.8166770935058594,-1.4219284057617188,-0.19175104796886444,14.75,0.0,2.971529960632324,-1.4998912811279297,-0.19175104796886444,18.25,0.0,3.117799758911133,-1.3579130172729492,-0.19175104796886444,15.75,0.0,2.7408599853515625,0.19598007202148438,-0.19175104796886444,20.25,0.0,2.7773380279541016,0.1652240753173828,-0.19175104796886444,26.25,0.0,2.7952194213867188,0.1176595687866211,-0.19175104796886444,24.25,0.0,3.0205249786376953,-0.13625621795654297,0.0,25.5,0.0,2.7812719345092773,0.05435943603515625,0.0,22.0,,,,,,,,,,,,,,,,,,,,,,,,,,,,,,,,,,,,,,,,
0.0,-0.9700238704681396,2.8911502361297607,-1.3091120721287255e-21,-1.04780912399292,-0.3884226083755493,-2.272646825143549e-21,-0.5412909388542175,-0.36975258588790894,-3.759972597450641e-22,0.0,2.986907958984375,-0.9523630142211914,-0.3835020959377289,27.0,0.0,3.070950508117676,-1.0818243026733398,-0.3835020959377289,27.75,0.0,3.177165985107422,-1.017451286315918,-0.3835020959377289,21.25,0.0,3.354191780090332,-0.8972883224487305,-0.19175104796886444,12.25,0.0,2.7751922607421875,-0.16307830810546875,-0.3835020959377289,16.5,0.0,2.843141555786133,-0.16236305236816406,-0.3835020959377289,26.25,0.0,2.891421318054199,-0.2607107162475586,-0.3835020959377289,27.25,0.0,2.7877092361450195,0.03719329833984375,0.0,22.0,,,,,,,,,,,,,,,,,,,,,,,,,,,,,,,,,,,,,,,,
0.0,-0.9731189608573914,2.8684685230255127,-1.1618653402876378e-21,-0.9053653478622437,-0.4203804135322571,-1.8102029814736478e-21,-0.3577846884727478,-0.40143483877182007,-5.541395711669517e-23,0.0,2.888917922973633,-1.374363899230957,-0.3835020959377289,23.75,0.0,2.997279167175293,-1.3071298599243164,-0.3835020959377289,26.75,0.0,3.071308135986328,-1.200556755065918,-0.3835020959377289,17.75,0.0,2.8138160705566406,-0.2878904342651367,-0.3835020959377289,24.25,0.0,2.753019332885742,-0.24890899658203125,-0.3835020959377289,15.25,0.0,2.8374195098876953,-0.2657175064086914,-0.3835020959377289,23.75,,,,,,,,,,,,,,,,,,,,,,,,,,,,,,,,,,,,,,,,,,,,,,,,,,
0.0,-1.0313057899475098,2.8362128734588623,-1.1057321692173217e-21,-0.8720859885215759,-0.4611615538597107,-1.5002423914425636e-21,-0.28874772787094116,-0.4256143867969513,1.4643019138442432e-22,0.0,3.0584335327148438,-1.4129877090454102,-0.3835020959377289,19.0,0.0,2.9000043869018555,-1.1190176010131836,-0.5752531439065933,24.25,0.0,3.0291080474853516,-1.2423992156982422,-0.3835020959377289,21.75,0.0,2.783060073852539,-0.3476142883300781,-0.19175104796886444,26.75,0.0,2.67791748046875,0.0718832015991211,-0.5752531439065933,31.0,0.0,2.6972293853759766,-0.029325485229492188,-0.5752531439065933,32.75,0.0,2.607107162475586,0.15163421630859375,-0.3835020959377289,20.75,,,,,,,,,,,,,,,,,,,,,,,,,,,,,,,,,,,,,,,,,,,,,
0.0,-1.0537950992584229,2.7957355976104736,-9.701128179788593e-22,-0.7725546360015869,-0.5156484246253967,-1.109406418256577e-21,-0.16317012906074524,-0.47083714604377747,3.8607897784443555e-22,0.0,2.801656723022461,-1.312851905822754,-0.5752531439065933,24.25,0.0,2.8821229934692383,-1.384735107421875,-0.5752531439065933,19.5,0.0,3.018021583557129,-1.4834403991699219,-0.5752531439065933,13.5,0.0,2.7923583984375,-0.7714033126831055,-0.3835020959377289,23.25,0.0,2.7043819427490234,-0.18525123596191406,-0.3835020959377289,25.75,0.0,2.572774887084961,0.037550926208496094,-0.3835020959377289,18.25,0.0,2.639651298522949,-0.006079673767089844,-0.3835020959377289,25.0,0.0,3.0548572540283203,-1.4401674270629883,0.0,21.25,0.0,3.000497817993164,-1.3539791107177734,0.0,24.75,0.0,2.979397773742676,-0.7474422454833984,0.0,25.75,,,,,,,,,,,,,,,,,,,,,,,,,,,,,,
0.0,-1.112274408340454,2.728557825088501,-9.130135258024754e-22,-0.7331877946853638,-0.6206785440444946,-8.507417294685426e-22,-0.09291157126426697,-0.5665201544761658,5.270908055261461e-22,0.0,2.7573108673095703,-1.0832548141479492,-0.5752531439065933,23.25,0.0,2.8209686279296875,-1.1326074600219727,-0.9587552398443222,22.5,0.0,2.8710365295410156,-1.2974739074707031,-1.1505062878131866,13.25,0.0,2.535581588745117,0.20778179168701172,-0.7670041918754578,24.75,0.0,2.559185028076172,0.22101402282714844,-0.7670041918754578,29.0,0.0,2.5949478149414062,0.2549886703491211,-0.7670041918754578,25.5,0.0,3.064870834350586,-1.4348030090332031,0.0,21.0,0.0,2.9611587524414062,-0.8397102355957031,0.0,26.25,,,,,,,,,,,,,,,,,,,,,,,,,,,,,,,,,,,,,,,,
0.0,-1.069480538368225,2.6744589805603027,-7.781718778205905e-22,-0.5383782386779785,-0.6682160496711731,-5.181820036859807e-22,0.0906740128993988,-0.5824286937713623,7.024458757323834e-22,0.0,2.741575241088867,-1.170516014099121,-0.7670041918754578,17.0,0.0,2.6564598083496094,-0.9616613388061523,-0.7670041918754578,24.5,0.0,2.5870800018310547,-0.7613897323608398,-0.3835020959377289,28.25,0.0,2.5599002838134766,-0.4448890686035156,-0.7670041918754578,28.75,0.0,2.415776252746582,-0.08618831634521484,-0.7670041918754578,14.25,0.0,2.5080442428588867,-0.1659393310546875,-0.7670041918754578,24.75,0.0,3.0122995376586914,-1.534581184387207,0.0,18.75,0.0,3.0312538146972656,-1.1597871780395508,0.0,21.25,0.0,2.948284149169922,-0.8625984191894531,0.0,26.0,,,,,,,,,,,,,,,,,,,,,,,,,,,,,,,,,,,
0.0,-0.9923901557922363,2.6379549503326416,-5.178894309534523e-22,-0.31931746006011963,-0.6607649326324463,-5.681684210699125e-23,0.26311391592025757,-0.5244694948196411,9.439627226812814e-22,0.0,2.956867218017578,-1.6171932220458984,-0.19175104796886444,13.5,0.0,2.6918649673461914,-1.3811588287353516,-0.19175104796886444,20.25,0.0,2.852797508239746,-1.455545425415039,-0.19175104796886444,17.75,0.0,2.5295019149780273,-1.017451286315918,-0.19175104796886444,31.0,0.0,2.6074647903442383,-1.101851463317871,-0.19175104796886444,23.25,0.0,2.5109052658081055,-0.5936622619628906,-0.19175104796886444,30.75,0.0,2.412557601928711,-0.2542734146118164,-1.342257335782051,30.25,0.0,2.354264259338379,-0.18668174743652344,-1.342257335782051,25.0,0.0,1.748800277709961,-1.3521909713745117,0.0,23.5,0.0,3.0280351638793945,-1.1529922485351562,0.0,21.25,0.0,3.0655860900878906,-1.3797283172607422,0.0,17.75,0.0,2.9436349868774414,-0.925898551940918,0.0,21.25,0.0,2.842426300048828,-0.3218650817871094,0.0,26.25,,,,,,,,,,,,,,,
0.0,-0.9529175758361816,2.571141004562378,-3.444695312110308e-22,-0.17109543085098267,-0.7154702544212341,2.5936007283143037e-22,0.373663067817688,-0.5423094630241394,1.08224526833577e-21,0.0,2.4840831756591797,-1.1951923370361328,-1.1505062878131866,23.75,0.0,2.5649070739746094,-1.305699348449707,0.19175104796886444,20.0,0.0,2.772688865661621,-1.3114213943481445,0.19175104796886444,18.0,0.0,2.9751062393188477,-1.2606382369995117,0.19175104796886444,18.0,0.0,3.093838691711426,-1.294255256652832,0.19175104796886444,13.25,0.0,2.377152442932129,-0.7352828979492188,-1.1505062878131866,24.25,0.0,2.2323131561279297,-0.35369396209716797,-1.342257335782051,32.25,0.0,2.2634267807006836,-0.33974647521972656,-1.342257335782051,31.75,0.0,3.1360387802124023,-1.2295246124267578,0.0,17.25,0.0,2.9436349868774414,-0.8797645568847656,0.0,21.0,0.0,3.0562877655029297,-1.0532140731811523,0.0,19.75,0.0,2.8295516967773438,-0.4152059555053711,0.0,22.75,,,,,,,,,,,,,,,,,,,,
0.0,-1.0493980646133423,2.4603731632232666,-2.018201545078263e-22,-0.28998199105262756,-0.7875738143920898,5.121788857932191e-22,0.21724416315555573,-0.5064556002616882,1.1734682851348629e-21,0.0,2.459406852722168,-1.4165639877319336,0.5752531439065933,16.0,0.0,2.6285648345947266,-1.6289949417114258,0.19175104796886444,12.25,0.0,2.9540061950683594,-1.612544059753418,0.19175104796886444,12.25,0.0,2.0238161087036133,-0.960230827331543,-0.9587552398443222,28.0,0.0,2.2323131561279297,-1.1472702026367188,-0.19175104796886444,20.25,0.0,2.425074577331543,-1.2373924255371094,-0.19175104796886444,18.75,0.0,2.899289131164551,-1.5399456024169922,0.19175104796886444,15.5,0.0,1.9805431365966797,-0.802159309387207,-0.9587552398443222,34.5,0.0,1.977682113647461,-0.7170438766479492,-0.9587552398443222,20.75,0.0,2.9289722442626953,-1.337885856628418,0.0,20.0,0.0,2.978682518005371,-1.542806625366211,0.0,15.25,0.0,2.864241600036621,-1.1208057403564453,0.0,20.75,0.0,2.7827024459838867,-0.6333589553833008,0.0,21.25,0.0,2.687215805053711,-0.27573108673095703,0.0,27.25,,,,,,,,,,
0.0,-1.0792747735977173,2.3583738803863525,-1.0343566908451977e-22,-0.28621840476989746,-0.8405511379241943,6.841507145926935e-22,0.18663537502288818,-0.47772902250289917,1.2086785930793107e-21,0.0,2.1196603775024414,-1.3715028762817383,-1.5340083837509155,14.0,0.0,2.7333498001098633,-1.498103141784668,-0.19175104796886444,12.75,0.0,2.839207649230957,-1.568913459777832,-0.19175104796886444,12.0,0.0,2.0123720169067383,-1.0027885437011719,0.19175104796886444,20.0,0.0,1.8367767333984375,-0.6912946701049805,-0.5752531439065933,14.25,0.0,1.9057989120483398,-0.7109642028808594,-0.5752531439065933,19.5,0.0,1.9526481628417969,-0.7503032684326172,-0.5752531439065933,28.25,0.0,2.964019775390625,-1.5796422958374023,0.0,14.75,0.0,2.9511451721191406,-1.2749433517456055,0.0,19.5,,,,,,,,,,,,,,,,,,,,,,,,,,,,,,,,,,,
0.0,-1.233393669128418,2.2376303672790527,-1.8906250662197484e-23,-0.5171113014221191,-0.9324313402175903,8.2088653751487165e-22,-0.06099860370159149,-0.48504480719566345,1.2198757226333412e-21,0.0,1.6937255859375,-1.372218132019043,-0.19175104796886444,22.25,0.0,1.7294883728027344,-1.5234947204589844,-0.19175104796886444,19.75,0.0,1.9712448120117188,-1.5496015548706055,-0.19175104796886444,13.0,0.0,2.398252487182617,-1.4505386352539062,-0.5752531439065933,12.5,0.0,2.545595169067383,-1.4727115631103516,-0.5752531439065933,17.5,0.0,2.617478370666504,-1.4927387237548828,-0.19175104796886444,15.25,0.0,2.9125213623046875,-1.3257265090942383,0.0,18.25,,,,,,,,,,,,,,,,,,,,,,,,,,,,,,,,,,,,,,,,,,,,,
0.0,-1.275180697441101,2.107616424560547,5.807636267181609e-23,-0.5315884947776794,-0.9946228861808777,9.27807659135922e-22,-0.09297038614749908,-0.45944997668266296,1.2099789387737025e-21,0.0,1.7824172973632812,-1.4820098876953125,-0.7670041918754578,12.75,0.0,1.7409324645996094,-1.2077093124389648,-0.19175104796886444,17.75,0.0,1.5749931335449219,-0.7953643798828125,-0.19175104796886444,15.5,0.0,1.6118288040161133,-0.8246898651123047,-0.19175104796886444,18.25,0.0,1.6847848892211914,-0.9087324142456055,-0.19175104796886444,15.75,0.0,2.8334856033325195,-1.8628835678100586,0.0,13.0,0.0,2.844572067260742,-1.4966726303100586,0.0,16.5,,,,,,,,,,,,,,,,,,,,,,,,,,,,,,,,,,,,,,,,,,,,,
0.0,-1.296420693397522,1.9982107877731323,1.2965168791022516e-22,-0.49105218052864075,-1.032760500907898,1.0109381999813467e-21,-0.05618418753147125,-0.438821941614151,1.1845286956276877e-21,0.0,1.7788410186767578,-1.1626482009887695,-0.7670041918754578,17.5,0.0,1.980900764465332,-1.2688636779785156,-0.7670041918754578,16.25,0.0,1.6422271728515625,-0.9044408798217773,-0.19175104796886444,15.5,0.0,1.6883611679077148,-0.9616613388061523,-0.19175104796886444,16.25,0.0,2.7712583541870117,-1.3114213943481445,0.0,17.5,0.0,2.8989315032958984,-1.415848731994629,0.0,16.0,,,,,,,,,,,,,,,,,,,,,,,,,,,,,,,,,,,,,,,,,,,,,,,,,,
0.0,-1.342448115348816,1.8870162963867188,1.9445426362407734e-22,-0.5120623111724854,-1.0602988004684448,1.0720220349008891e-21,-0.09131132066249847,-0.3972819745540619,1.1465705768910762e-21,0.0,1.7098188400268555,-1.3310909271240234,-0.3835020959377289,19.5,0.0,1.8099546432495117,-1.4340877532958984,-0.3835020959377289,17.0,0.0,1.5828609466552734,-0.9577274322509766,-0.19175104796886444,16.25,0.0,1.6951560974121094,-0.9813308715820312,-0.19175104796886444,15.75,0.0,2.7605295181274414,-1.3246536254882812,0.0,16.5,0.0,2.9000043869018555,-1.4255046844482422,0.0,15.0,,,,,,,,,,,,,,,,,,,,,,,,,,,,,,,,,,,,,,,,,,,,,,,,,,
0.0,-1.3713032007217407,1.831547737121582,2.56273872265363e-22,-0.5306130647659302,-0.9561128616333008,1.1200865599277619e-21,-0.15686146914958954,-0.20140007138252258,1.103669771266712e-21,0.0,1.5327930450439453,-1.0296106338500977,-0.19175104796886444,14.0,0.0,1.7137527465820312,-1.0349750518798828,0.3835020959377289,13.25,0.0,1.8836259841918945,-1.0918378829956055,0.3835020959377289,19.25,0.0,1.9565820693969727,-1.1991262435913086,0.19175104796886444,15.5,0.0,2.753734588623047,-1.3600587844848633,0.0,15.0,0.0,2.934694290161133,-1.3811588287353516,0.0,14.25,,,,,,,,,,,,,,,,,,,,,,,,,,,,,,,,,,,,,,,,,,,,,,,,,,
0.0,-1.3970097303390503,1.759809970855713,3.0056271967323074e-22,-0.5272238254547119,-0.8972017168998718,1.1325464727753212e-21,-0.1740083545446396,-0.09226027876138687,1.0398286339805941e-21,0.0,1.3679265975952148,-1.0825395584106445,0.19175104796886444,12.75,0.0,1.3797283172607422,-1.1265277862548828,0.19175104796886444,15.0,0.0,1.8489360809326172,-1.2180805206298828,-0.19175104796886444,17.25,0.0,2.000570297241211,-1.1401176452636719,-0.19175104796886444,13.5,0.0,1.6769170761108398,-0.8715391159057617,0.0,12.5,0.0,2.701878547668457,-1.433730125427246,0.0,13.5,,,,,,,,,,,,,,,,,,,,,,,,,,,,,,,,,,,,,,,,,,,,,,,,,,
