tid,posx,posy,posz,velx,vely,velz,accx,accy,accz,pointx1,pointy1,pointz1,doppler1,snr1,pointx2,pointy2,pointz2,doppler2,snr2,pointx3,pointy3,pointz3,doppler3,snr3,pointx4,pointy4,pointz4,doppler4,snr4,pointx5,pointy5,pointz5,doppler5,snr5,pointx6,pointy6,pointz6,doppler6,snr6,pointx7,pointy7,pointz7,doppler7,snr7,pointx8,pointy8,pointz8,doppler8,snr8,pointx9,pointy9,pointz9,doppler9,snr9,pointx10,pointy10,pointz10,doppler10,snr10,pointx11,pointy11,pointz11,doppler11,snr11,pointx12,pointy12,pointz12,doppler12,snr12,pointx13,pointy13,pointz13,doppler13,snr13,pointx14,pointy14,pointz14,doppler14,snr14
0.0,-0.19122934341430664,3.067913055419922,-0.013464506715536118,-0.3688494861125946,-0.4466657042503357,-0.0888172909617424,-0.14461810886859894,-0.6309054493904114,-0.025198766961693764,0.0,2.993345260620117,0.0890493392944336,-0.5752531439065933,18.25,0.0,2.922177314758301,0.23639202117919922,-0.5752531439065933,21.25,0.0,2.8624534606933594,0.3147125244140625,-0.5752531439065933,18.0,0.0,3.38137149810791,-0.813603401184082,0.0,25.25,0.0,3.1539201736450195,0.030755996704101562,0.0,28.25,0.0,3.230452537536621,-0.030755996704101562,0.0,26.75,0.0,3.0813217163085938,0.13875961303710938,0.0,22.75,,,,,,,,,,,,,,,,,,,,,,,,,,,,,,,,,,,
0.0,-0.21937140822410583,3.0150816440582275,-0.015089806169271469,-0.3625585734844208,-0.5332892537117004,-0.07740786671638489,-0.12120163440704346,-0.6730299592018127,-0.01207854226231575,0.0,3.189682960510254,-1.4437437057495117,-0.5752531439065933,21.25,0.0,3.185749053955078,-1.44195556640625,-0.5752531439065933,21.0,0.0,3.293752670288086,-1.4090538024902344,-0.7670041918754578,17.75,0.0,3.1442642211914062,-0.8611679077148438,-0.5752531439065933,19.25,0.0,3.040909767150879,-0.12981891632080078,-0.5752531439065933,24.0,0.0,2.9064416885375977,0.08046627044677734,-0.5752531439065933,18.5,0.0,2.9854774475097656,-0.02002716064453125,-0.5752531439065933,24.25,0.0,2.956867218017578,0.080108642578125,0.0,17.25,0.0,3.0498504638671875,0.022172927856445312,0.0,26.25,0.0,3.1131505966186523,-0.01609325408935547,0.0,29.0,,,,,,,,,,,,,,,,,,,,
0.0,-0.21004696190357208,2.960285186767578,-0.013152404688298702,-0.2833039164543152,-0.6101670265197754,-0.06027457118034363,-0.0283588245511055,-0.6984122395515442,0.005213441327214241,0.0,3.2297372817993164,-1.616835594177246,-0.7670041918754578,14.5,0.0,3.3223628997802734,-0.8643865585327148,-0.5752531439065933,14.5,0.0,3.2358169555664062,-0.6290674209594727,-0.7670041918754578,18.25,0.0,2.8377771377563477,0.08046627044677734,-0.5752531439065933,23.5,0.0,2.869248390197754,0.008940696716308594,-0.5752531439065933,24.75,0.0,3.004789352416992,-0.0711679458618164,-0.7670041918754578,17.75,0.0,2.7480125427246094,0.17702579498291016,-0.5752531439065933,15.75,0.0,3.3556222915649414,-0.9098052978515625,0.0,23.75,0.0,3.0355453491210938,0.03039836883544922,0.0,26.25,0.0,3.0927658081054688,0.011444091796875,0.0,28.0,0.0,3.209710121154785,-0.08940696716308594,0.0,24.5,0.0,2.943277359008789,0.09906291961669922,0.0,17.75,,,,,,,,,,
0.0,-0.25019434094429016,2.886720895767212,-0.012394758872687817,-0.3052971065044403,-0.7120223045349121,-0.0464060977101326,-0.0441286638379097,-0.7476699948310852,0.018110355362296104,0.0,3.0258893966674805,-0.9888410568237305,-0.9587552398443222,17.0,0.0,2.8831958770751953,-0.27680397033691406,-0.7670041918754578,27.5,0.0,2.965092658996582,-0.400543212890625,-0.5752531439065933,23.75,0.0,2.7140378952026367,0.06580352783203125,-0.7670041918754578,22.0,0.0,2.7991533279418945,-0.05078315734863281,-0.7670041918754578,26.75,0.0,3.349900245666504,-0.9001493453979492,0.0,22.5,0.0,3.232240676879883,-0.43523311614990234,0.0,23.25,0.0,2.914309501647949,-0.13053417205810547,0.0,20.75,0.0,2.9883384704589844,-0.03826618194580078,0.0,26.75,0.0,3.072381019592285,-0.003933906555175781,0.0,26.25,,,,,,,,,,,,,,,,,,,,
0.0,-0.47860556840896606,2.774737596511841,-0.009668974205851555,-0.6770879030227661,-0.9648208618164062,-0.027514224871993065,-0.3861962556838989,-1.0341498851776123,0.035853706300258636,0.0,3.082752227783203,-1.8024444580078125,-0.19175104796886444,12.0,0.0,3.056645393371582,-1.3818740844726562,-1.72575943171978,15.5,0.0,2.86102294921875,-0.8944272994995117,-0.7670041918754578,26.5,0.0,2.9178857803344727,-1.0149478912353516,-0.7670041918754578,26.75,0.0,3.005862236022949,-1.0703802108764648,-1.72575943171978,22.75,0.0,2.816319465637207,-0.46956539154052734,-1.342257335782051,22.25,0.0,2.720475196838379,-0.29647350311279297,-1.342257335782051,16.0,0.0,3.187894821166992,-0.7274150848388672,0.0,22.0,0.0,2.893209457397461,-0.12123584747314453,0.0,21.25,0.0,2.9751062393188477,-0.06794929504394531,0.0,27.0,0.0,3.0487775802612305,-0.057220458984375,0.0,25.5,,,,,,,,,,,,,,,
0.0,-0.6562252640724182,2.6626052856445312,-0.006997810211032629,-0.9109306335449219,-1.1406081914901733,-0.012688949704170227,-0.5602185726165771,-1.1543595790863037,0.04661145061254501,0.0,2.9175281524658203,-1.3446807861328125,-0.9587552398443222,20.0,0.0,2.9865503311157227,-1.5442371368408203,-0.19175104796886444,16.5,0.0,2.844572067260742,-1.1719465255737305,-0.9587552398443222,23.75,0.0,2.7480125427246094,-0.9949207305908203,-0.9587552398443222,25.0,0.0,2.558469772338867,-0.5979537963867188,-1.1505062878131866,25.5,0.0,2.6679039001464844,-0.6254911422729492,-1.1505062878131866,26.0,0.0,2.509474754333496,-0.23317337036132812,-1.72575943171978,20.75,0.0,2.76947021484375,-0.4552602767944336,0.0,24.25,0.0,2.931833267211914,-0.21207332611083984,0.0,26.25,,,,,,,,,,,,,,,,,,,,,,,,,
0.0,-0.8693134188652039,2.511399269104004,-0.004799071233719587,-1.1676609516143799,-1.3791415691375732,-0.0003931061364710331,-0.7235258221626282,-1.33951735496521,0.053962592035532,0.0,1.9294023513793945,-1.2627840042114258,0.19175104796886444,23.75,0.0,2.1811723709106445,-1.0371208190917969,-1.72575943171978,26.75,0.0,2.8728246688842773,-1.4029741287231445,-0.5752531439065933,19.0,0.0,3.0122995376586914,-1.5385150909423828,-0.5752531439065933,15.75,0.0,2.7562379837036133,-1.0567903518676758,-1.5340083837509155,24.25,0.0,2.8209686279296875,-1.1533498764038086,-1.5340083837509155,22.75,0.0,2.4193525314331055,-0.8121728897094727,-1.72575943171978,26.25,0.0,2.6006698608398438,-0.9541511535644531,-1.72575943171978,24.75,0.0,2.019524574279785,-1.1959075927734375,0.0,19.75,,,,,,,,,,,,,,,,,,,,,,,,,
0.0,-1.0491578578948975,2.389202117919922,-0.00237093074247241,-1.3852986097335815,-1.4805355072021484,0.00917677953839302,-0.8768075108528137,-1.2993508577346802,0.05748342350125313,0.0,2.80916690826416,-1.637578010559082,-0.3835020959377289,21.5,0.0,2.9021501541137695,-1.6654729843139648,-0.3835020959377289,16.5,0.0,2.235889434814453,-1.0156631469726562,-0.7670041918754578,22.0,0.0,2.369999885559082,-1.237034797668457,-1.72575943171978,12.75,0.0,2.7118921279907227,-1.3350248336791992,-0.3835020959377289,13.0,0.0,2.824544906616211,-1.4662742614746094,-0.3835020959377289,19.75,0.0,2.199411392211914,-0.8547306060791016,-0.7670041918754578,25.0,0.0,2.1840333938598633,-0.46312808990478516,-0.7670041918754578,24.25,,,,,,,,,,,,,,,,,,,,,,,,,,,,,,
0.0,-1.2547533512115479,2.260859966278076,-0.00038746336940675974,-1.6181743144989014,-1.5862103700637817,0.01632755808532238,-1.0247828960418701,-1.276148796081543,0.058601584285497665,0.0,2.0896196365356445,-1.3107061386108398,-0.19175104796886444,23.75,0.0,2.164006233215332,-1.338958740234375,0.3835020959377289,25.5,0.0,2.256631851196289,-1.3439655303955078,-0.7670041918754578,20.0,0.0,2.7909278869628906,-1.5099048614501953,-0.9587552398443222,15.5,0.0,2.8864145278930664,-1.569986343383789,-0.9587552398443222,17.5,0.0,2.053499221801758,-1.0575056076049805,-0.19175104796886444,17.75,0.0,2.7916431427001953,-1.5102624893188477,-0.9587552398443222,15.25,0.0,3.0330419540405273,-1.5739202499389648,-0.9587552398443222,16.0,0.0,3.1932592391967773,-1.589655876159668,0.3835020959377289,12.75,,,,,,,,,,,,,,,,,,,,,,,,,
0.0,-1.3782118558883667,2.128620147705078,0.001323726144619286,-1.644587755203247,-1.6377876996994019,0.02142900787293911,-0.9658477306365967,-1.1840081214904785,0.05788305029273033,0.0,2.048492431640625,-1.349329948425293,-0.3835020959377289,18.25,0.0,2.259492874145508,-1.2416839599609375,-0.7670041918754578,19.5,0.0,1.9415616989135742,-0.9402036666870117,-0.19175104796886444,14.75,0.0,2.4400949478149414,-1.1250972747802734,-0.19175104796886444,14.5,0.0,2.5513172149658203,-1.2363195419311523,-0.19175104796886444,12.25,0.0,3.110647201538086,-1.317143440246582,0.0,15.0,0.0,2.1532773971557617,-0.6573200225830078,0.0,25.25,,,,,,,,,,,,,,,,,,,,,,,,,,,,,,,,,,,
0.0,-1.465463399887085,1.9940757751464844,0.00264580175280571,-1.5724449157714844,-1.668347954750061,0.02469433844089508,-0.8112001419067383,-1.0868629217147827,0.055813610553741455,0.0,1.7609596252441406,-1.0052919387817383,0.3835020959377289,16.25,0.0,1.866459846496582,-1.088261604309082,0.3835020959377289,21.5,0.0,2.0395517349243164,-1.2230873107910156,-0.19175104796886444,21.25,0.0,2.12860107421875,-1.3582706451416016,-1.72575943171978,20.0,0.0,2.2230148315429688,-1.4230012893676758,-1.72575943171978,13.5,0.0,3.0133724212646484,-1.5145540237426758,0.0,14.0,0.0,2.143979072570801,-0.6777048110961914,0.0,25.75,,,,,,,,,,,,,,,,,,,,,,,,,,,,,,,,,,,
0.0,-1.5522364377975464,1.886934518814087,0.004162130877375603,-1.5157885551452637,-1.636206865310669,0.027598416432738304,-0.6987990140914917,-0.9320616126060486,0.053718388080596924,0.0,1.8879175186157227,-1.282811164855957,-0.19175104796886444,24.25,0.0,1.9998550415039062,-1.291036605834961,-0.19175104796886444,26.0,0.0,2.1740198135375977,-1.238107681274414,-0.19175104796886444,24.0,0.0,2.3113489151000977,-1.2180805206298828,-0.19175104796886444,18.0,0.0,2.9447078704833984,-1.6443729400634766,0.0,14.5,0.0,2.862095832824707,-1.4905929565429688,0.0,18.25,,,,,,,,,,,,,,,,,,,,,,,,,,,,,,,,,,,,,,,,
0.0,-0.24468955397605896,3.050963878631592,-7.280206773430109e-05,-0.1021767109632492,-0.37406837940216064,-0.001053330022841692,-0.0731419250369072,-0.3912007212638855,-0.0004454515874385834,0.0,3.3026933670043945,-1.294255256652832,-0.7670041918754578,15.75,0.0,3.2318830490112305,-1.134037971496582,-0.5752531439065933,21.75,0.0,3.1818151473999023,-0.7832050323486328,-0.5752531439065933,23.0,0.0,3.063797950744629,-0.21564960479736328,-0.5752531439065933,24.5,0.0,2.904653549194336,0.04506111145019531,-0.5752531439065933,20.0,0.0,2.974390983581543,-0.06723403930664062,-0.5752531439065933,25.0,0.0,3.5011768341064453,-1.3060569763183594,0.0,14.0,0.0,3.4003257751464844,-1.0499954223632812,0.0,19.0,0.0,3.336310386657715,-0.8883476257324219,0.0,26.0,0.0,3.220796585083008,-0.15878677368164062,0.0,26.0,,,,,,,,,,,,,,,,,,,,
0.0,-0.2980007529258728,3.001574754714966,-0.00012054882245138288,-0.1732141375541687,-0.4832189977169037,-0.0010241706622764468,-0.11964776366949081,-0.5090786218643188,-0.00040204034303314984,0.0,3.2840967178344727,-1.3636350631713867,-0.7670041918754578,15.0,0.0,3.285527229309082,-0.9820461273193359,-0.7670041918754578,18.25,0.0,3.2061338424682617,-0.7942914962768555,-0.5752531439065933,20.5,0.0,3.063082695007324,-0.5986690521240234,-0.3835020959377289,19.25,0.0,2.8971433639526367,0.04506111145019531,-0.7670041918754578,21.0,0.0,2.7118921279907227,0.23746490478515625,-0.9587552398443222,15.75,0.0,2.794504165649414,0.19991397857666016,-0.9587552398443222,21.0,0.0,3.222227096557617,-0.5486011505126953,0.0,25.25,,,,,,,,,,,,,,,,,,,,,,,,,,,,,,
0.0,-0.4177035391330719,2.922814130783081,-0.00014787554391659796,-0.34295451641082764,-0.6546245813369751,-0.0009674716857261956,-0.23980015516281128,-0.697138249874115,-0.0003441430744715035,0.0,2.949357032775879,-1.1451244354248047,-0.7670041918754578,27.75,0.0,2.9772520065307617,-1.2710094451904297,-0.9587552398443222,26.5,0.0,3.0791759490966797,-1.2867450714111328,-0.9587552398443222,19.5,0.0,3.269791603088379,-1.2903213500976562,-0.9587552398443222,12.75,0.0,2.951502799987793,-0.5360841751098633,-0.7670041918754578,23.75,0.0,2.561330795288086,0.15735626220703125,-1.1505062878131866,13.25,0.0,2.647876739501953,0.1823902130126953,-1.1505062878131866,20.5,0.0,2.7573108673095703,0.13053417205810547,-1.1505062878131866,22.0,0.0,3.185749053955078,-0.7152557373046875,0.0,25.5,,,,,,,,,,,,,,,,,,,,,,,,,
0.0,-0.49910420179367065,2.840169906616211,-0.00017717437003739178,-0.4346572160720825,-0.7879687547683716,-0.0009159857872873545,-0.2878786325454712,-0.7989763617515564,-0.00029281049501150846,0.0,3.0155181884765625,-1.4412403106689453,-1.1505062878131866,17.5,0.0,2.994418144226074,-1.159071922302246,-0.7670041918754578,23.25,0.0,2.817392349243164,-0.9337663650512695,-0.7670041918754578,25.5,0.0,2.919316291809082,-1.062154769897461,-0.7670041918754578,27.25,0.0,2.604246139526367,-0.019669532775878906,-1.1505062878131866,14.75,0.0,2.6700496673583984,-0.011801719665527344,-1.1505062878131866,25.5,0.0,2.7000904083251953,-0.06186962127685547,-0.9587552398443222,26.25,,,,,,,,,,,,,,,,,,,,,,,,,,,,,,,,,,,
0.0,-0.6072430610656738,2.7354440689086914,-0.00020357701578177512,-0.5628650188446045,-0.9376146793365479,-0.0008611473604105413,-0.36362791061401367,-0.9001947641372681,-0.00024190610565710813,0.0,1.8213987350463867,-1.2978315353393555,-0.19175104796886444,19.25,0.0,2.8063058853149414,-1.4247894287109375,-0.5752531439065933,15.25,0.0,3.4182071685791016,-1.7437934875488281,-0.9587552398443222,14.5,0.0,2.7583837509155273,-1.0689496994018555,-0.5752531439065933,24.5,0.0,2.768397331237793,-1.2080669403076172,-0.5752531439065933,20.25,0.0,2.732992172241211,-0.6848573684692383,-1.342257335782051,23.75,0.0,2.4204254150390625,-0.47278404235839844,-1.5340083837509155,18.0,0.0,2.606034278869629,-0.21600723266601562,-1.5340083837509155,21.5,0.0,1.8603801727294922,-1.2642145156860352,0.0,17.5,,,,,,,,,,,,,,,,,,,,,,,,,
0.0,-0.7367212772369385,2.6006271839141846,-0.00019815271662082523,-0.6977744102478027,-1.155211329460144,-0.0007646599551662803,-0.42469653487205505,-1.092299222946167,-0.00016738291014917195,0.0,2.7347803115844727,-1.4466047286987305,-0.5752531439065933,21.75,0.0,2.827763557434082,-1.4927387237548828,-0.5752531439065933,19.25,0.0,2.536296844482422,-1.0006427764892578,-0.3835020959377289,20.0,0.0,2.7294158935546875,-1.2331008911132812,-2.109261527657509,22.0,0.0,3.0580759048461914,-1.349329948425293,0.19175104796886444,14.0,0.0,2.372145652770996,-0.6380081176757812,-2.109261527657509,26.5,0.0,2.309560775756836,-0.4602670669555664,-2.109261527657509,24.0,0.0,2.3424625396728516,-0.5167722702026367,-2.109261527657509,29.25,,,,,,,,,,,,,,,,,,,,,,,,,,,,,,
0.0,-0.9455894827842712,2.4791808128356934,-0.0001960975641850382,-0.9958531260490417,-1.259751319885254,-0.0006816054810769856,-0.6572304368019104,-1.0713602304458618,-0.00010719803685788065,0.0,2.15756893157959,-1.2634992599487305,-2.109261527657509,18.25,0.0,2.990841865539551,-1.6379356384277344,-0.19175104796886444,15.0,0.0,2.4983882904052734,-1.2259483337402344,-2.109261527657509,13.0,0.0,2.6636123657226562,-1.3200044631958008,0.3835020959377289,18.0,0.0,2.761960029602051,-1.376509666442871,0.3835020959377289,19.75,0.0,2.873539924621582,-1.4655590057373047,0.5752531439065933,17.25,0.0,2.116084098815918,-0.8844137191772461,-0.9587552398443222,24.5,0.0,2.0864009857177734,-0.6984472274780273,-0.9587552398443222,26.75,,,,,,,,,,,,,,,,,,,,,,,,,,,,,,
0.0,-1.1068813800811768,2.321786642074585,-0.00020327925449237227,-1.156057357788086,-1.4327504634857178,-0.0006106718210503459,-0.7297961711883545,-1.1557157039642334,-5.609991785604507e-05,0.0,1.9408464431762695,-1.130819320678711,-0.19175104796886444,19.75,0.0,2.106785774230957,-1.177668571472168,-1.1505062878131866,22.5,0.0,2.3446083068847656,-1.336812973022461,-1.1505062878131866,14.25,0.0,2.4712085723876953,-1.5245676040649414,-1.342257335782051,15.0,0.0,2.6203393936157227,-1.5681982040405273,-1.342257335782051,14.75,0.0,2.239823341369629,-1.1748075485229492,-1.1505062878131866,17.75,0.0,3.2590627670288086,-1.4727115631103516,0.0,14.75,,,,,,,,,,,,,,,,,,,,,,,,,,,,,,,,,,,
0.0,-1.2753510475158691,2.143916130065918,-0.00021142818150110543,-1.363691806793213,-1.5529217720031738,-0.0005479378160089254,-0.8856099247932434,-1.1131454706192017,-1.4475506759481505e-05,0.0,1.8335580825805664,-1.2284517288208008,0.19175104796886444,20.0,0.0,1.9676685333251953,-1.3053417205810547,0.19175104796886444,21.25,0.0,1.6433000564575195,-0.9162425994873047,0.19175104796886444,13.75,0.0,1.7262697219848633,-0.9816884994506836,0.19175104796886444,14.0,0.0,2.0885467529296875,-1.314997673034668,-0.19175104796886444,13.5,0.0,3.201127052307129,-1.6422271728515625,0.0,13.5,,,,,,,,,,,,,,,,,,,,,,,,,,,,,,,,,,,,,,,,
0.0,-0.7244073152542114,2.6367580890655518,8.690546593470572e-08,-0.47365832328796387,-1.14283287525177,8.98074802080373e-07,-0.31134968996047974,-0.8898999094963074,9.965488061425276e-07,0.0,2.6886463165283203,-1.2416839599609375,-1.1505062878131866,17.25,0.0,2.755880355834961,-1.3464689254760742,-1.9175104796886444,15.75,0.0,2.8928518295288086,-1.3943910598754883,-1.9175104796886444,12.25,0.0,2.2083520889282227,-0.7195472717285156,-0.19175104796886444,21.0,0.0,2.3735761642456055,-0.7381439208984375,-1.342257335782051,19.75,0.0,2.58636474609375,-0.9133815765380859,-1.1505062878131866,17.25,0.0,2.277374267578125,-0.6437301635742188,-1.342257335782051,23.5,0.0,2.133607864379883,-0.8407831192016602,0.0,20.25,0.0,3.1374692916870117,-1.0142326354980469,0.0,17.25,0.0,3.2712221145629883,-1.1093616485595703,0.0,20.25,0.0,3.3516883850097656,-1.155853271484375,0.0,17.75,0.0,3.035902976989746,-0.0711679458618164,0.0,22.25,,,,,,,,,,
0.0,-0.9290273189544678,2.4974796772003174,1.401346736429332e-07,-0.8091657757759094,-1.218039870262146,9.455474128117203e-07,-0.6045861840248108,-0.8180473446846008,9.64727178143221e-07,0.0,2.467632293701172,-1.4415979385375977,-0.7670041918754578,18.5,0.0,2.604961395263672,-1.4687776565551758,-0.19175104796886444,15.25,0.0,2.0563602447509766,-0.9591579437255859,-0.5752531439065933,31.0,0.0,2.102494239807129,-0.9663105010986328,-0.5752531439065933,30.0,0.0,2.2695064544677734,-1.0510683059692383,0.3835020959377289,24.75,0.0,2.419710159301758,-1.2545585632324219,-0.7670041918754578,24.75,0.0,3.143906593322754,-1.0432004928588867,0.0,16.75,0.0,3.269791603088379,-1.1512041091918945,0.0,20.25,0.0,3.338456153869629,-1.181960105895996,0.0,18.25,,,,,,,,,,,,,,,,,,,,,,,,,
0.0,-1.1034185886383057,2.3283779621124268,1.8727899941950454e-07,-1.0544630289077759,-1.3451188802719116,9.734397963256924e-07,-0.7871313095092773,-0.8310449123382568,9.216226999342325e-07,0.0,1.9186735153198242,-1.056075096130371,0.19175104796886444,13.5,0.0,1.9387006759643555,-1.124739646911621,0.19175104796886444,27.5,0.0,1.971602439880371,-1.192331314086914,-0.9587552398443222,26.5,0.0,2.08282470703125,-1.2824535369873047,-0.9587552398443222,20.75,0.0,2.352118492126465,-1.2545585632324219,-0.7670041918754578,14.75,0.0,3.213644027709961,-1.2148618698120117,0.0,14.25,0.0,3.34775447845459,-1.3110637664794922,0.0,12.75,0.0,3.1124353408813477,-0.8525848388671875,0.0,15.0,,,,,,,,,,,,,,,,,,,,,,,,,,,,,,
0.0,-1.2575713396072388,2.161159038543701,2.3354935763109097e-07,-1.2369515895843506,-1.4534467458724976,9.918778687278973e-07,-0.8991270065307617,-0.8297582268714905,8.749117341722012e-07,0.0,1.8349885940551758,-1.2663602828979492,-0.5752531439065933,25.5,0.0,1.9065141677856445,-1.2924671173095703,0.19175104796886444,24.25,0.0,1.8728971481323242,-1.0489225387573242,-0.5752531439065933,13.5,0.0,2.1039247512817383,-1.2238025665283203,-0.3835020959377289,18.75,0.0,3.155350685119629,-1.3217926025390625,0.0,13.75,,,,,,,,,,,,,,,,,,,,,,,,,,,,,,,,,,,,,,,,,,,,,
0.0,-1.302755355834961,2.078373908996582,2.458936023685965e-07,-1.1995408535003662,-1.390084981918335,9.589718956704019e-07,-0.8104918003082275,-0.6571866869926453,7.982846454979153e-07,0.0,1.8285512924194336,-1.0925531387329102,-0.19175104796886444,14.75,0.0,1.865386962890625,-1.1250972747802734,-0.19175104796886444,26.0,0.0,1.9866228103637695,-1.1376142501831055,-0.3835020959377289,22.5,0.0,2.2040605545043945,-1.0886192321777344,-0.19175104796886444,18.5,0.0,2.875685691833496,-0.7431507110595703,-0.7670041918754578,12.25,0.0,2.9500722885131836,-0.7842779159545898,-0.5752531439065933,13.0,0.0,3.1610727310180664,-1.28173828125,0.0,12.25,,,,,,,,,,,,,,,,,,,,,,,,,,,,,,,,,,,
0.0,-1.4042547941207886,1.9766181707382202,2.8016751230097725e-07,-1.2512942552566528,-1.3722259998321533,9.513018426332565e-07,-0.7975725531578064,-0.5613707900047302,7.421415375574725e-07,0.0,1.8907785415649414,-1.2241601943969727,-0.19175104796886444,18.25,0.0,1.9040107727050781,-1.3446807861328125,-0.19175104796886444,17.75,0.0,2.007722854614258,-1.3958215713500977,-0.19175104796886444,14.0,0.0,2.9207468032836914,-1.0482072830200195,-0.3835020959377289,13.25,0.0,2.913236618041992,-0.42879581451416016,-0.19175104796886444,12.25,0.0,3.022313117980957,-1.0932683944702148,0.0,13.5,,,,,,,,,,,,,,,,,,,,,,,,,,,,,,,,,,,,,,,,
0.0,-1.4989293813705444,1.8518235683441162,3.3552288414284703e-07,-1.2749109268188477,-1.390298843383789,9.673075282989885e-07,-0.7530494928359985,-0.5174194574356079,7.046411951705522e-07,0.0,1.7670392990112305,-1.4591217041015625,-0.19175104796886444,13.0,0.0,1.864314079284668,-1.0128021240234375,-0.19175104796886444,18.5,0.0,2.770543098449707,-0.7724761962890625,0.7670041918754578,15.25,0.0,2.8531551361083984,-0.7406473159790039,-0.3835020959377289,17.75,0.0,2.899646759033203,-0.7073879241943359,-0.3835020959377289,16.0,,,,,,,,,,,,,,,,,,,,,,,,,,,,,,,,,,,,,,,,,,,,,
0.0,-1.5494117736816406,1.7851121425628662,3.5876485071639763e-07,-1.2351773977279663,-1.2784113883972168,9.373716238769703e-07,-0.6808127760887146,-0.3351705074310303,6.411781896531465e-07,0.0,1.8450021743774414,-1.090407371520996,0.19175104796886444,14.5,0.0,1.8589496612548828,-1.0864734649658203,0.19175104796886444,25.75,0.0,1.919388771057129,-1.1343955993652344,0.19175104796886444,19.25,0.0,2.859950065612793,-1.0753870010375977,-0.3835020959377289,13.0,0.0,2.3599863052368164,-0.8633136749267578,0.19175104796886444,12.75,0.0,2.7930736541748047,-0.937342643737793,-0.3835020959377289,13.25,,,,,,,,,,,,,,,,,,,,,,,,,,,,,,,,,,,,,,,,
0.0,-1.5574753284454346,1.8095084428787231,3.736849123470165e-07,-1.1252490282058716,-1.0118436813354492,8.964385642684647e-07,-0.5585192441940308,-0.028091907501220703,5.754060339313583e-07,0.0,2.0155906677246094,-0.9891986846923828,0.19175104796886444,17.0,0.0,2.1142959594726562,-1.0210275650024414,0.19175104796886444,15.75,0.0,2.302408218383789,-0.9913444519042969,0.3835020959377289,14.5,0.0,2.878546714782715,-1.1250972747802734,-0.19175104796886444,12.25,0.0,2.6357173919677734,-0.7817745208740234,0.0,16.0,,,,,,,,,,,,,,,,,,,,,,,,,,,,,,,,,,,,,,,,,,,,,
0.0,-1.5166170597076416,1.8699182271957397,3.558881473963993e-07,-0.9453081488609314,-0.6958932876586914,8.136829592331196e-07,-0.38778749108314514,0.2930399477481842,4.87990064357291e-07,0.0,1.9047260284423828,-1.0410547256469727,0.19175104796886444,12.25,0.0,1.948714256286621,-1.0156631469726562,0.19175104796886444,23.0,0.0,2.0291805267333984,-0.9963512420654297,0.19175104796886444,19.0,0.0,2.2215843200683594,-1.1011362075805664,0.3835020959377289,12.5,,,,,,,,,,,,,,,,,,,,,,,,,,,,,,,,,,,,,,,,,,,,,,,,,,
0.0,-0.39231547713279724,3.1231071949005127,7.452506167737738e-09,-0.4595799744129181,-0.4923713803291321,8.602709655747276e-10,-0.4649427533149719,-0.3549653887748718,-1.243403602302351e-08,0.0,3.2161474227905273,-1.3843774795532227,-0.7670041918754578,19.75,0.0,3.3309459686279297,-1.5009641647338867,-0.3835020959377289,19.5,0.0,3.4700632095336914,-1.477360725402832,-0.3835020959377289,18.25,0.0,3.7665367126464844,-1.4287233352661133,-0.3835020959377289,13.75,0.0,3.1592845916748047,-0.9194612503051758,-0.5752531439065933,19.75,0.0,3.043055534362793,-0.2614259719848633,-0.7670041918754578,21.0,0.0,2.922534942626953,0.006794929504394531,-0.7670041918754578,23.0,0.0,2.739071846008301,0.19812583923339844,-0.7670041918754578,13.5,0.0,2.840280532836914,0.1087188720703125,-0.7670041918754578,21.0,0.0,3.588080406188965,-1.1554956436157227,0.0,16.25,0.0,3.775477409362793,-1.404404640197754,0.0,12.25,0.0,3.4875869750976562,-0.9605884552001953,0.0,17.25,,,,,,,,,,
0.0,-0.45285168290138245,3.0613882541656494,5.7396301045287146e-09,-0.5147390961647034,-0.5913306474685669,-2.5519215629543623e-09,-0.46268031001091003,-0.4616488218307495,-1.3788148400806222e-08,0.0,3.1900405883789062,-2.068161964416504,-0.7670041918754578,12.25,0.0,3.2057762145996094,-0.8397102355957031,-0.5752531439065933,25.0,0.0,3.3005475997924805,-0.8103847503662109,-0.5752531439065933,22.75,0.0,2.866387367248535,-0.2968311309814453,-0.9587552398443222,20.25,0.0,2.947568893432617,-0.2846717834472656,-0.9587552398443222,23.75,0.0,3.080606460571289,-0.47385692596435547,-0.9587552398443222,23.25,0.0,3.4804344177246094,-0.49245357513427734,-0.5752531439065933,15.75,0.0,3.575921058654785,-1.156926155090332,0.0,16.75,0.0,3.499746322631836,-0.9140968322753906,0.0,18.5,0.0,2.7294158935546875,0.1455545425415039,0.0,12.25,,,,,,,,,,,,,,,,,,,,
0.0,-0.5205711722373962,2.9764907360076904,4.008263498889164e-09,-0.566459596157074,-0.7348722219467163,-5.716195072835717e-09,-0.4520336389541626,-0.617368221282959,-1.4916775370465984e-08,0.0,3.219008445739746,-1.090407371520996,-0.9587552398443222,18.75,0.0,3.304123878479004,-1.2116432189941406,-0.9587552398443222,14.25,0.0,3.053426742553711,-0.7674694061279297,-0.9587552398443222,23.25,0.0,3.1489133834838867,-0.8876323699951172,-0.9587552398443222,22.0,0.0,2.9082298278808594,-0.35190582275390625,-0.5752531439065933,20.5,0.0,2.694368362426758,-0.09369850158691406,-0.9587552398443222,18.75,0.0,2.754092216491699,-0.21529197692871094,-1.1505062878131866,22.5,0.0,3.5805702209472656,-1.1118650436401367,0.0,15.5,0.0,3.469705581665039,-0.9309053421020508,0.0,18.5,,,,,,,,,,,,,,,,,,,,,,,,,
0.0,-0.5776771903038025,2.870079278945923,2.4419952726617566e-09,-0.5813267230987549,-0.9174723625183105,-8.37969960088003e-09,-0.4034362733364105,-0.8126888275146484,-1.56636481563055e-08,0.0,3.0705928802490234,-1.5170574188232422,-1.1505062878131866,16.0,0.0,3.0258893966674805,-1.1376142501831055,-1.1505062878131866,16.75,0.0,3.278017044067383,-1.3965368270874023,-0.3835020959377289,13.5,0.0,2.8252601623535156,-1.0263919830322266,-1.342257335782051,19.0,0.0,2.9861927032470703,-0.9101629257202148,-1.342257335782051,22.25,0.0,2.509474754333496,0.07402896881103516,-1.1505062878131866,17.5,0.0,2.5777816772460938,0.023245811462402344,-1.1505062878131866,21.25,0.0,2.672553062438965,-0.06651878356933594,-1.1505062878131866,18.75,,,,,,,,,,,,,,,,,,,,,,,,,,,,,,
0.0,-0.6817357540130615,2.7459323406219482,1.1112950559777346e-09,-0.6897667646408081,-1.0704803466796875,-1.048002573611484e-08,-0.4523096978664398,-0.9103074669837952,-1.6005373026928282e-08,0.0,2.7680397033691406,-1.0482072830200195,-0.7670041918754578,19.25,0.0,2.8771162033081055,-1.1876821517944336,-0.7670041918754578,20.25,0.0,2.991199493408203,-1.1883974075317383,-0.7670041918754578,18.25,0.0,3.1453371047973633,-1.2466907501220703,-0.5752531439065933,15.0,0.0,2.2062063217163086,-0.7660388946533203,-0.19175104796886444,17.0,0.0,2.4508237838745117,-0.4838705062866211,-1.342257335782051,23.25,0.0,2.5277137756347656,-0.43201446533203125,-1.342257335782051,27.25,0.0,2.626776695251465,-0.4438161849975586,-1.72575943171978,23.25,0.0,1.9955635070800781,-1.170516014099121,0.0,13.75,0.0,3.4056901931762695,-1.095414161682129,0.0,16.75,,,,,,,,,,,,,,,,,,,,
0.0,-0.8927668333053589,2.600168466567993,2.910454863225276e-12,-0.9889651536941528,-1.2283211946487427,-1.2040836772087005e-08,-0.6730151176452637,-0.9772428274154663,-1.5984694456960824e-08,0.0,2.457261085510254,-1.1458396911621094,-0.7670041918754578,20.75,0.0,2.704024314880371,-1.270294189453125,-0.5752531439065933,19.25,0.0,2.7920007705688477,-1.3550519943237305,-0.7670041918754578,22.25,0.0,2.8638839721679688,-1.4319419860839844,-0.7670041918754578,20.5,0.0,3.008723258972168,-1.4905929565429688,0.19175104796886444,15.5,0.0,2.125382423400879,-0.8951425552368164,-1.5340083837509155,27.0,0.0,2.20334529876709,-0.9191036224365234,-0.9587552398443222,30.25,0.0,2.273082733154297,-0.9759664535522461,-0.9587552398443222,27.75,0.0,3.4439563751220703,-0.9216070175170898,0.0,16.25,0.0,3.3556222915649414,-0.6780624389648438,0.0,18.75,,,,,,,,,,,,,,,,,,,,
0.0,-1.1221128702163696,2.4392313957214355,-8.372775806009258e-10,-1.2740607261657715,-1.4191356897354126,-1.298943619332249e-08,-0.8508175611495972,-1.09695303440094,-1.5560175370410434e-08,0.0,2.227306365966797,-1.4469623565673828,-2.3010125756263733,17.5,0.0,2.0273923873901367,-1.2595653533935547,0.19175104796886444,26.5,0.0,2.1135807037353516,-1.3178586959838867,-2.3010125756263733,24.75,0.0,2.7126073837280273,-1.4852285385131836,-1.1505062878131866,15.25,0.0,2.86710262298584,-1.5614032745361328,-1.1505062878131866,13.75,0.0,3.136754035949707,-1.7513036727905273,0.5752531439065933,12.25,0.0,2.0009279251098633,-1.049637794494629,-1.1505062878131866,24.25,0.0,2.570986747741699,-1.3715028762817383,-1.1505062878131866,13.5,0.0,3.072023391723633,-1.57928466796875,0.3835020959377289,13.5,0.0,3.3055543899536133,-1.386880874633789,0.0,14.75,0.0,3.0777454376220703,-1.019597053527832,0.0,18.5,0.0,3.268718719482422,-1.0035037994384766,0.0,16.5,,,,,,,,,,
0.0,-1.2645312547683716,2.2778818607330322,-1.9364614356476295e-09,-1.384982705116272,-1.5446698665618896,-1.4148602289765222e-08,-0.8780775666236877,-1.1063251495361328,-1.529928361776456e-08,0.0,1.9823312759399414,-1.1043548583984375,-0.19175104796886444,20.25,0.0,2.044558525085449,-1.2313127517700195,-0.5752531439065933,23.0,0.0,2.111077308654785,-1.3082027435302734,-0.5752531439065933,19.5,0.0,3.342747688293457,-1.3135671615600586,0.0,14.5,0.0,3.0548572540283203,-1.0968446731567383,0.0,18.0,0.0,3.284454345703125,-0.9666681289672852,0.0,16.5,,,,,,,,,,,,,,,,,,,,,,,,,,,,,,,,,,,,,,,,
0.0,-1.4120184183120728,2.0946340560913086,-2.8010314068183106e-09,-1.4943299293518066,-1.6787084341049194,-1.4782818524849972e-08,-0.907315731048584,-1.1170804500579834,-1.4710944462592579e-08,0.0,1.7641782760620117,-1.1637210845947266,0.3835020959377289,20.75,0.0,1.7910003662109375,-1.250624656677246,-0.3835020959377289,28.5,0.0,1.8432140350341797,-1.3210773468017578,-0.3835020959377289,25.25,0.0,2.015233039855957,-1.3704299926757812,-0.5752531439065933,16.75,0.0,3.0645132064819336,-1.0828971862792969,0.0,18.25,0.0,3.34775447845459,-1.1469125747680664,0.0,12.25,0.0,3.278374671936035,-0.9230375289916992,0.0,16.5,,,,,,,,,,,,,,,,,,,,,,,,,,,,,,,,,,,
0.0,-0.6833217740058899,2.687326431274414,0.002728814724832773,-1.0648945569992065,-0.9059125185012817,0.0029626404866576195,-0.8387060165405273,-0.7873543500900269,-0.0009372135391458869,0.0,2.0771026611328125,-0.9409189224243164,-0.19175104796886444,18.0,0.0,2.86710262298584,-1.326441764831543,-0.3835020959377289,19.25,0.0,3.0080080032348633,-1.4948844909667969,-0.3835020959377289,14.0,0.0,2.651810646057129,-1.031041145324707,-0.3835020959377289,24.75,0.0,2.750873565673828,-1.1390447616577148,-0.3835020959377289,27.25,0.0,2.7920007705688477,-1.2030601501464844,-0.3835020959377289,24.75,0.0,2.541661262512207,-0.42700767517089844,-1.72575943171978,23.0,0.0,2.4307966232299805,-0.30684471130371094,-1.342257335782051,22.0,0.0,1.8514394760131836,-1.2352466583251953,0.0,18.25,0.0,1.9866228103637695,-1.234889030456543,0.0,16.0,,,,,,,,,,,,,,,,,,,,
0.0,-0.8245590329170227,2.5643835067749023,0.0023119531106203794,-1.183310627937317,-1.0558686256408691,0.002075974131003022,-0.8526734709739685,-0.886992335319519,-0.00137269776314497,0.0,2.807021141052246,-1.5392303466796875,0.19175104796886444,14.5,0.0,2.768397331237793,-1.2663602828979492,0.19175104796886444,18.25,0.0,2.524137496948242,-1.044631004333496,0.19175104796886444,20.75,0.0,2.7140378952026367,-1.1161565780639648,0.19175104796886444,19.0,0.0,2.1954774856567383,-0.6937980651855469,-1.9175104796886444,26.5,0.0,2.326369285583496,-0.8640289306640625,-1.9175104796886444,24.5,0.0,2.273082733154297,-0.6290674209594727,-1.9175104796886444,28.0,,,,,,,,,,,,,,,,,,,,,,,,,,,,,,,,,,,
0.0,-1.0184017419815063,2.4338817596435547,0.0019111363217234612,-1.3824533224105835,-1.2063301801681519,0.001263634767383337,-0.9387410879135132,-0.9716445803642273,-0.0017460024682804942,0.0,2.0002126693725586,-0.9999275207519531,-0.9587552398443222,25.25,0.0,2.0542144775390625,-1.089334487915039,-0.9587552398443222,24.25,0.0,2.201557159423828,-1.1540651321411133,-2.109261527657509,20.25,0.0,2.3932456970214844,-1.2341737747192383,-1.1505062878131866,15.5,0.0,2.804875373840332,-1.4415979385375977,0.5752531439065933,15.0,0.0,2.9250383377075195,-1.4333724975585938,-0.19175104796886444,16.25,0.0,3.0977725982666016,-1.3679265975952148,-0.19175104796886444,13.0,,,,,,,,,,,,,,,,,,,,,,,,,,,,,,,,,,,
0.0,-1.1260238885879517,2.299696922302246,0.0016494924202561378,-1.4223017692565918,-1.2957037687301636,0.0006147505482658744,-0.8991587162017822,-0.9505764245986938,-0.002011791570112109,0.0,2.306699752807617,-1.086115837097168,-0.19175104796886444,19.0,0.0,1.8875598907470703,-0.8096694946289062,-0.3835020959377289,12.5,0.0,1.978754997253418,-0.8450746536254883,-0.7670041918754578,21.5,0.0,2.1561384201049805,-0.9752511978149414,-0.19175104796886444,18.5,0.0,2.4297237396240234,-1.0825395584106445,-0.19175104796886444,12.5,,,,,,,,,,,,,,,,,,,,,,,,,,,,,,,,,,,,,,,,,,,,,
0.0,-1.2624956369400024,2.1536800861358643,0.0014181032311171293,-1.504759669303894,-1.3938285112380981,5.627429345622659e-05,-0.9009072184562683,-0.9423969984054565,-0.00221360195428133,0.0,1.9161701202392578,-1.0585784912109375,-0.5752531439065933,16.75,0.0,2.0821094512939453,-1.223444938659668,-0.19175104796886444,19.75,0.0,2.1497011184692383,-1.2856721878051758,-0.19175104796886444,17.5,0.0,1.7559528350830078,-0.9216070175170898,0.19175104796886444,13.25,0.0,3.1260251998901367,-1.3414621353149414,0.0,16.0,0.0,2.8012990951538086,-0.8858442306518555,0.0,19.0,,,,,,,,,,,,,,,,,,,,,,,,,,,,,,,,,,,,,,,,
0.0,-1.3828701972961426,2.0201313495635986,0.001139526953920722,-1.5539443492889404,-1.444157361984253,-0.0005128886550664902,-0.8835325241088867,-0.8794505596160889,-0.0024072821252048016,0.0,1.8128156661987305,-1.1050701141357422,0.3835020959377289,16.75,0.0,1.8918514251708984,-1.145482063293457,0.3835020959377289,24.5,0.0,1.979827880859375,-1.1780261993408203,-0.5752531439065933,22.5,0.0,2.146124839782715,-1.1769533157348633,0.19175104796886444,16.5,0.0,3.0280351638793945,-1.5320777893066406,0.0,13.25,0.0,2.788066864013672,-0.9441375732421875,0.0,19.75,,,,,,,,,,,,,,,,,,,,,,,,,,,,,,,,,,,,,,,,
0.0,-1.4270342588424683,1.9572604894638062,0.0008154796669259667,-1.4436084032058716,-1.3664714097976685,-0.0010756030678749084,-0.7206540703773499,-0.7090488076210022,-0.002578295534476638,0.0,1.942276954650879,-1.1065006256103516,0.19175104796886444,15.0,0.0,2.2852420806884766,-1.0710954666137695,-0.3835020959377289,20.75,0.0,2.3328065872192383,-1.1444091796875,-0.3835020959377289,13.25,0.0,2.237677574157715,-1.010298728942871,-0.3835020959377289,18.75,0.0,2.765178680419922,-1.0263919830322266,0.0,20.5,,,,,,,,,,,,,,,,,,,,,,,,,,,,,,,,,,,,,,,,,,,,,
0.0,-0.4257467985153198,3.1196534633636475,2.6745709647002514e-07,-0.5001718997955322,-0.41104504466056824,1.2618864957403275e-06,-0.22019626200199127,-0.42556434869766235,4.373926572043274e-07,0.0,3.271937370300293,-1.3915300369262695,-0.3835020959377289,17.5,0.0,3.329157829284668,-1.0074377059936523,-0.3835020959377289,20.5,0.0,3.228306770324707,-0.5307197570800781,-0.3835020959377289,19.75,0.0,3.053426742553711,-0.2002716064453125,-0.7670041918754578,23.0,0.0,2.9543638229370117,0.04971027374267578,-0.7670041918754578,23.75,0.0,2.867460250854492,0.17058849334716797,-0.7670041918754578,20.5,0.0,3.26693058013916,-0.5840063095092773,0.0,23.25,,,,,,,,,,,,,,,,,,,,,,,,,,,,,,,,,,,
0.0,-0.5201455354690552,3.067718029022217,2.745319136465696e-07,-0.582682728767395,-0.5279474258422852,1.1413028460083297e-06,-0.2580694556236267,-0.5620919466018677,3.3283515676885145e-07,0.0,3.314852714538574,-1.6515254974365234,-0.7670041918754578,14.5,0.0,3.2215118408203125,-1.358628273010254,-0.7670041918754578,23.0,0.0,3.285527229309082,-1.3886690139770508,-0.7670041918754578,21.0,0.0,3.2172203063964844,-0.9691715240478516,-0.7670041918754578,21.0,0.0,3.1142234802246094,-0.6061792373657227,-0.19175104796886444,19.5,0.0,2.685070037841797,0.23031234741210938,-0.7670041918754578,15.5,0.0,2.7376413345336914,0.2567768096923828,-0.7670041918754578,19.0,0.0,2.8831958770751953,0.11014938354492188,-0.7670041918754578,16.25,,,,,,,,,,,,,,,,,,,,,,,,,,,,,,
0.0,-0.5862099528312683,3.004237174987793,2.7565045002120314e-07,-0.5991694331169128,-0.6567267179489136,1.017738782138622e-06,-0.23145857453346252,-0.6999410390853882,2.3209824462355755e-07,0.0,3.2025575637817383,-1.5184879302978516,-0.7670041918754578,16.0,0.0,3.3788681030273438,-1.5660524368286133,-0.5752531439065933,12.75,0.0,3.338456153869629,-1.4137029647827148,-0.5752531439065933,17.5,0.0,3.1424760818481445,-1.055002212524414,-0.7670041918754578,13.5,0.0,3.0205249786376953,-0.6380081176757812,-0.7670041918754578,15.75,0.0,2.8946399688720703,-0.12874603271484375,-0.7670041918754578,15.5,0.0,2.6450157165527344,0.12874603271484375,-1.1505062878131866,17.0,0.0,2.7244091033935547,0.1087188720703125,-1.1505062878131866,17.5,0.0,3.4096240997314453,-1.1501312255859375,0.0,22.25,,,,,,,,,,,,,,,,,,,,,,,,,
0.0,-0.6436793208122253,2.903810501098633,2.688702807063237e-07,-0.5928629040718079,-0.8321731090545654,8.890909271030978e-07,-0.18416842818260193,-0.8689373135566711,1.3354710404200887e-07,0.0,3.048062324523926,-1.3897418975830078,-0.7670041918754578,15.25,0.0,3.1499862670898438,-1.484513282775879,-0.3835020959377289,17.0,0.0,3.2644271850585938,-1.501321792602539,-0.3835020959377289,16.5,0.0,3.00443172454834,-0.9777545928955078,-0.7670041918754578,13.25,0.0,2.8020143508911133,-0.5797147750854492,-1.72575943171978,13.5,0.0,2.6214122772216797,-0.27108192443847656,-1.5340083837509155,18.75,0.0,2.5055408477783203,-0.09119510650634766,-1.1505062878131866,20.0,0.0,2.5388002395629883,-0.1741647720336914,-1.1505062878131866,22.75,,,,,,,,,,,,,,,,,,,,,,,,,,,,,,
0.0,-0.6902883648872375,2.7830989360809326,2.4426992695225636e-07,-0.5540430545806885,-1.0431923866271973,7.42051497581997e-07,-0.10250590741634369,-1.0770106315612793,2.8022114406667242e-08,0.0,3.127455711364746,-1.488804817199707,-1.342257335782051,19.0,0.0,2.972245216369629,-1.1608600616455078,-2.3010125756263733,13.0,0.0,3.080606460571289,-1.3099908828735352,-1.342257335782051,16.75,0.0,3.2651424407958984,-1.4172792434692383,-0.19175104796886444,16.5,0.0,2.8170347213745117,-0.9638071060180664,-2.3010125756263733,13.0,0.0,2.5920867919921875,-0.4838705062866211,-1.72575943171978,13.25,0.0,2.3943185806274414,-0.24390220642089844,-1.1505062878131866,23.75,0.0,2.430438995361328,-0.3129243850708008,-1.1505062878131866,21.0,0.0,2.3603439331054688,-0.17631053924560547,-1.1505062878131866,18.25,,,,,,,,,,,,,,,,,,,,,,,,,
0.0,-0.767480731010437,2.6403017044067383,2.349512158161815e-07,-0.5831189155578613,-1.2452081441879272,6.265340743993875e-07,-0.09928475320339203,-1.2180266380310059,-5.025285076953878e-08,0.0,2.8281211853027344,-1.4687776565551758,-1.9175104796886444,13.5,0.0,2.923250198364258,-1.5295743942260742,-2.109261527657509,15.5,0.0,3.065943717956543,-1.5124082565307617,-2.109261527657509,14.75,0.0,2.500176429748535,-0.7492303848266602,-1.342257335782051,19.25,0.0,2.322077751159668,-0.5779266357421875,-0.9587552398443222,25.5,0.0,2.4014711380004883,-0.6608963012695312,-0.9587552398443222,24.25,0.0,2.2684335708618164,-0.45740604400634766,-0.9587552398443222,22.75,,,,,,,,,,,,,,,,,,,,,,,,,,,,,,,,,,,
0.0,-0.9534679055213928,2.4720089435577393,2.2563804691344558e-07,-0.8309353590011597,-1.4298762083053589,5.207044182498066e-07,-0.3156963586807251,-1.2685072422027588,-1.1619781048466393e-07,0.0,1.9383430480957031,-1.0832548141479492,0.19175104796886444,24.0,0.0,2.570986747741699,-1.4040470123291016,-2.109261527657509,14.75,0.0,2.692580223083496,-1.4573335647583008,-2.109261527657509,14.75,0.0,2.062082290649414,-1.067519187927246,-0.3835020959377289,21.25,0.0,2.302408218383789,-1.0868310928344727,0.7670041918754578,19.0,0.0,2.456188201904297,-1.2642145156860352,-1.72575943171978,18.75,0.0,3.349184989929199,-1.6264915466308594,0.0,15.5,,,,,,,,,,,,,,,,,,,,,,,,,,,,,,,,,,,
0.0,-1.1031007766723633,2.295924663543701,2.1862044263798452e-07,-0.9856722354888916,-1.6008598804473877,4.263001187609916e-07,-0.4290330111980438,-1.3058063983917236,-1.7079581482448702e-07,0.0,1.9737482070922852,-1.2674331665039062,-0.7670041918754578,23.5,0.0,1.94549560546875,-1.089334487915039,-0.3835020959377289,23.75,0.0,2.36356258392334,-1.2788772583007812,-0.5752531439065933,17.25,0.0,2.418994903564453,-1.4548301696777344,-2.3010125756263733,12.5,0.0,2.261638641357422,-1.1268854141235352,-0.7670041918754578,20.75,,,,,,,,,,,,,,,,,,,,,,,,,,,,,,,,,,,,,,,,,,,,,
0.0,-0.20603573322296143,3.086481809616089,-0.00013754908286500722,-0.06204545497894287,-0.46084803342819214,-0.0003440719156060368,-0.12444936484098434,-0.4392964839935303,-4.761473246617243e-05,0.0,3.4418106079101562,-1.591801643371582,-0.3835020959377289,13.25,0.0,3.211498260498047,-0.9720325469970703,-0.7670041918754578,19.0,0.0,3.3370256423950195,-0.9083747863769531,-0.7670041918754578,19.25,0.0,3.465414047241211,-0.8636713027954102,-0.5752531439065933,16.0,0.0,2.870321273803711,0.08440017700195312,-0.9587552398443222,18.0,0.0,2.933979034423828,0.06258487701416016,-0.9587552398443222,22.0,0.0,3.040909767150879,0.05829334259033203,-0.9587552398443222,18.75,0.0,3.3763647079467773,-1.2534856796264648,0.0,19.0,0.0,3.5762786865234375,-1.122593879699707,0.0,16.25,0.0,3.286600112915039,-0.9655952453613281,0.0,24.0,0.0,3.1954050064086914,-0.14269351959228516,0.0,27.5,0.0,3.054499626159668,0.09620189666748047,0.0,28.25,0.0,3.105282783508301,0.04398822784423828,0.0,31.0,0.0,2.946138381958008,0.12409687042236328,0.0,18.5
0.0,-0.3505677580833435,3.064767837524414,-0.00011621118028415367,-0.2998969554901123,-0.47273576259613037,-0.0002895578509196639,-0.30517616868019104,-0.4177984893321991,-1.6660065739415586e-05,0.0,3.417849540710449,-1.3114213943481445,-0.19175104796886444,19.0,0.0,3.5219192504882812,-1.374363899230957,-0.19175104796886444,18.75,0.0,3.754734992980957,-1.4591217041015625,-0.19175104796886444,14.25,0.0,3.349900245666504,-1.1168718338012695,-0.19175104796886444,17.75,0.0,3.3130645751953125,-0.6405115127563477,-0.19175104796886444,13.25,0.0,2.6868581771850586,-0.016450881958007812,-0.7670041918754578,14.25,0.0,2.8181076049804688,0.006079673767089844,-0.7670041918754578,23.0,0.0,2.8249025344848633,0.013947486877441406,-0.7670041918754578,21.75,0.0,2.467632293701172,0.15628337860107422,-0.9587552398443222,13.5,0.0,3.3402442932128906,-1.2660026550292969,0.0,18.25,0.0,3.278374671936035,-0.9648799896240234,0.0,23.0,0.0,3.200054168701172,-0.1666545867919922,0.0,26.25,0.0,3.0237436294555664,0.07724761962890625,0.0,29.0,0.0,3.101348876953125,0.04470348358154297,0.0,31.0
0.0,-0.4751463532447815,2.991840362548828,-0.00010975111945299432,-0.47882598638534546,-0.5989056825637817,-0.00025168032152578235,-0.41963934898376465,-0.5405240058898926,5.497642632690258e-06,0.0,3.498673439025879,-1.9966363906860352,-0.9587552398443222,15.5,0.0,3.3963918685913086,-1.7219781875610352,-0.3835020959377289,17.75,0.0,3.394603729248047,-1.433730125427246,-0.3835020959377289,17.25,0.0,3.3380985260009766,-1.008152961730957,-0.3835020959377289,14.25,0.0,3.0083656311035156,-0.7749795913696289,-1.342257335782051,18.5,0.0,3.177165985107422,-0.7957220077514648,-0.3835020959377289,16.75,0.0,2.858877182006836,-0.5282163619995117,-1.1505062878131866,19.5,0.0,2.6543140411376953,-0.42557716369628906,-1.1505062878131866,15.0,0.0,2.7680397033691406,-0.3325939178466797,-1.1505062878131866,20.25,0.0,3.372788429260254,-1.269221305847168,0.0,17.75,0.0,3.2858848571777344,-0.9444952011108398,0.0,19.75,0.0,3.1943321228027344,-0.16379356384277344,0.0,25.25,0.0,3.097414970397949,0.05042552947998047,0.0,30.75,,,,,
0.0,-0.6509314179420471,2.903381586074829,-9.574783325660974e-05,-0.7230486273765564,-0.7519172430038452,-0.00020690601377282292,-0.5765198469161987,-0.6871973872184753,3.062536416109651e-05,0.0,3.3119916915893555,-1.7952919006347656,-0.19175104796886444,17.75,0.0,3.275156021118164,-1.6665458679199219,-0.7670041918754578,18.0,0.0,2.7437210083007812,-0.8311271667480469,-1.342257335782051,19.25,0.0,2.942204475402832,-0.937342643737793,-1.342257335782051,15.75,0.0,3.293752670288086,-1.1898279190063477,-0.5752531439065933,15.5,0.0,3.175020217895508,-0.9130239486694336,-0.5752531439065933,13.0,0.0,2.593874931335449,-0.4448890686035156,-1.1505062878131866,21.5,0.0,2.645730972290039,-0.5918741226196289,-1.1505062878131866,22.0,0.0,2.4955272674560547,-0.34296512603759766,-0.7670041918754578,15.75,0.0,3.3659934997558594,-1.3328790664672852,0.0,18.0,0.0,3.3048391342163086,-0.9062290191650391,0.0,18.0,0.0,3.197193145751953,-0.2982616424560547,0.0,22.75,0.0,3.09598445892334,0.02753734588623047,0.0,28.75,,,,,
0.0,-0.7393312454223633,2.7619354724884033,-9.614480950403959e-05,-0.7922408580780029,-0.9465234279632568,-0.00018000640557147563,-0.5748448371887207,-0.833910346031189,4.4635002268478274e-05,0.0,2.5434494018554688,-1.1036396026611328,-1.5340083837509155,18.5,0.0,2.389669418334961,-0.7749795913696289,-0.9587552398443222,28.0,0.0,2.4290084838867188,-0.7728338241577148,-0.9587552398443222,31.0,0.0,2.483367919921875,-0.8279085159301758,-1.5340083837509155,26.5,0.0,2.323150634765625,-0.6158351898193359,-0.7670041918754578,17.5,0.0,3.4024715423583984,-1.6046762466430664,0.0,16.25,0.0,3.3785104751586914,-1.2259483337402344,0.0,17.75,0.0,3.3016204833984375,-0.9015798568725586,0.0,18.75,0.0,3.200054168701172,-0.2957582473754883,0.0,21.25,,,,,,,,,,,,,,,,,,,,,,,,,
0.0,-0.8823348879814148,2.61980938911438,-8.508111932314932e-05,-0.942396342754364,-1.1377246379852295,-0.00014156042016111314,-0.639769434928894,-0.97279953956604,6.437509728129953e-05,0.0,3.0312538146972656,-1.4920234680175781,-1.9175104796886444,13.25,0.0,3.1009912490844727,-1.615762710571289,-1.9175104796886444,16.5,0.0,3.240823745727539,-1.5546083450317383,-0.9587552398443222,15.75,0.0,2.3006200790405273,-0.8568763732910156,-0.7670041918754578,28.75,0.0,2.36356258392334,-0.9781122207641602,-0.7670041918754578,19.25,0.0,2.2308826446533203,-0.7832050323486328,-1.1505062878131866,24.0,0.0,2.2777318954467773,-0.8361339569091797,-0.7670041918754578,30.25,0.0,3.313779830932617,-1.5406608581542969,0.0,17.25,0.0,3.3516883850097656,-1.7409324645996094,0.0,16.75,0.0,3.2958984375,-1.1658668518066406,0.0,15.25,0.0,3.2047033309936523,-0.6687641143798828,0.0,13.25,,,,,,,,,,,,,,,
0.0,-1.0554298162460327,2.479355573654175,-7.11398315615952e-05,-1.1203932762145996,-1.3171062469482422,-0.00010219863906968385,-0.7193653583526611,-1.0923606157302856,8.354659075848758e-05,0.0,2.7086734771728516,-1.4995336532592773,-2.3010125756263733,12.5,0.0,2.1736621856689453,-1.0471343994140625,0.19175104796886444,20.5,0.0,2.2591352462768555,-1.2069940567016602,0.19175104796886444,21.5,0.0,2.429366111755371,-1.1712312698364258,-1.72575943171978,18.0,0.0,2.9289722442626953,-1.5267133712768555,-2.684514671564102,13.5,0.0,3.1145811080932617,-1.5424489974975586,-1.5340083837509155,14.25,0.0,3.201127052307129,-1.6955137252807617,-1.5340083837509155,13.5,0.0,2.0377635955810547,-0.9026527404785156,-1.1505062878131866,19.0,0.0,3.2912492752075195,-1.5721321105957031,0.0,17.75,0.0,3.3538341522216797,-1.728057861328125,0.0,16.5,0.0,3.274083137512207,-1.2145042419433594,0.0,16.75,0.0,3.1946897506713867,-0.7925033569335938,0.0,14.75,,,,,,,,,,
0.0,-1.1630973815917969,2.3147876262664795,-6.532338011311367e-05,-1.181247353553772,-1.4631949663162231,-7.492299482692033e-05,-0.7108749747276306,-1.1226563453674316,9.433190280105919e-05,0.0,1.8310546875,-0.9173154830932617,-0.5752531439065933,12.75,0.0,1.953721046447754,-0.9530782699584961,-0.7670041918754578,22.0,0.0,2.105712890625,-1.1175870895385742,-0.7670041918754578,20.5,0.0,2.256631851196289,-1.1715888977050781,-0.7670041918754578,20.75,0.0,2.342820167541504,-1.238107681274414,-0.9587552398443222,14.75,0.0,3.2483339309692383,-1.6965866088867188,0.0,17.0,0.0,3.286600112915039,-1.2273788452148438,0.0,15.5,,,,,,,,,,,,,,,,,,,,,,,,,,,,,,,,,,,
0.0,-1.3180574178695679,2.14412522315979,-5.9671729104593396e-05,-1.3365331888198853,-1.5830738544464111,-4.9994760047411546e-05,-0.803475022315979,-1.105051875114441,0.00010299671703251079,0.0,1.7437934875488281,-1.1698007583618164,0.19175104796886444,13.0,0.0,1.793503761291504,-1.2645721435546875,-0.19175104796886444,21.5,0.0,1.9640922546386719,-1.284956932067871,-0.19175104796886444,19.75,0.0,2.205491065979004,-1.2170076370239258,-0.19175104796886444,18.25,0.0,3.238677978515625,-1.738429069519043,0.0,15.75,0.0,3.2705068588256836,-1.2706518173217773,0.0,14.0,,,,,,,,,,,,,,,,,,,,,,,,,,,,,,,,,,,,,,,,
0.0,-0.46143609285354614,3.153228521347046,6.144590543044615e-07,-0.3174391984939575,-0.4548065662384033,5.091795287626155e-07,-0.15982253849506378,-0.2786933183670044,-4.882540451944806e-07,0.0,3.245830535888672,-1.1748075485229492,-0.5752531439065933,17.75,0.0,3.369927406311035,-1.2363195419311523,-0.5752531439065933,14.5,0.0,3.1943321228027344,-0.537872314453125,-0.5752531439065933,19.25,0.0,3.0863285064697266,-0.16629695892333984,-0.5752531439065933,22.0,0.0,3.0133724212646484,-0.08082389831542969,-0.5752531439065933,20.5,0.0,2.8928518295288086,0.09298324584960938,-0.3835020959377289,13.75,0.0,3.5054683685302734,-1.2359619140625,0.0,17.75,0.0,3.4410953521728516,-1.016378402709961,0.0,23.25,0.0,2.945065498352051,0.18596649169921875,0.0,16.25,,,,,,,,,,,,,,,,,,,,,,,,,
0.0,-0.5040895938873291,3.1048643589019775,4.936887307849247e-07,-0.34313085675239563,-0.5259606242179871,2.5200148456860916e-07,-0.16020967066287994,-0.36022719740867615,-6.113132826612855e-07,0.0,3.2737255096435547,-1.1240243911743164,-0.7670041918754578,22.0,0.0,3.3856630325317383,-1.1647939682006836,-0.9587552398443222,18.5,0.0,3.5004615783691406,-1.1773109436035156,-0.9587552398443222,13.25,0.0,3.189682960510254,-0.7002353668212891,-0.7670041918754578,23.25,0.0,3.0906200408935547,-0.28967857360839844,-0.5752531439065933,24.5,0.0,2.9811859130859375,-0.04112720489501953,-0.5752531439065933,23.0,0.0,2.8624534606933594,0.09584426879882812,-0.5752531439065933,19.75,0.0,2.924680709838867,0.08511543273925781,0.0,19.75,0.0,3.1321048736572266,0.07939338684082031,0.0,31.0,0.0,3.2290220260620117,-0.04971027374267578,0.0,29.5,0.0,3.0448436737060547,0.10192394256591797,0.0,27.5,,,,,,,,,,,,,,,
0.0,-0.5282780528068542,3.017535448074341,4.010414897948067e-07,-0.3316039741039276,-0.6452674865722656,4.7812946490921604e-08,-0.12772196531295776,-0.47320517897605896,-6.966649834794225e-07,0.0,3.0258893966674805,-1.1576414108276367,-0.9587552398443222,23.75,0.0,3.092050552368164,-1.2896060943603516,-0.9587552398443222,15.25,0.0,2.937912940979004,-1.0199546813964844,-0.9587552398443222,23.5,0.0,2.8617382049560547,-0.13589859008789062,-0.7670041918754578,26.25,0.0,2.741217613220215,0.08404254913330078,-0.7670041918754578,20.0,0.0,2.808094024658203,-0.031828880310058594,-0.7670041918754578,26.5,,,,,,,,,,,,,,,,,,,,,,,,,,,,,,,,,,,,,,,,
0.0,-0.6474937200546265,2.9226126670837402,3.0879672863193264e-07,-0.4847576320171356,-0.7727848291397095,-1.3758057093582465e-07,-0.23894189298152924,-0.581608772277832,-7.655976332898717e-07,0.0,2.903580665588379,-1.1497735977172852,-0.7670041918754578,28.0,0.0,2.9554367065429688,-1.1637210845947266,-0.7670041918754578,25.0,0.0,3.0884742736816406,-1.1783838272094727,-1.342257335782051,14.0,0.0,2.878546714782715,-0.8765459060668945,-0.5752531439065933,24.5,0.0,2.7158260345458984,-0.3075599670410156,-1.1505062878131866,15.25,0.0,2.798795700073242,-0.40411949157714844,-1.1505062878131866,21.75,,,,,,,,,,,,,,,,,,,,,,,,,,,,,,,,,,,,,,,,
0.0,-0.6847892999649048,2.8147878646850586,2.1390755478023493e-07,-0.4743413031101227,-0.9097214937210083,-3.1013593115858384e-07,-0.19624656438827515,-0.6945846080780029,-8.229388299696438e-07,0.0,1.8492937088012695,-1.262068748474121,-0.19175104796886444,18.75,0.0,3.055572509765625,-1.4230012893676758,-0.19175104796886444,15.25,0.0,2.850651741027832,-1.1276006698608398,-0.5752531439065933,21.25,0.0,2.933979034423828,-1.2824535369873047,-1.342257335782051,18.25,0.0,2.7598142623901367,-0.9952783584594727,-0.5752531439065933,24.0,0.0,2.6875734329223633,-0.400543212890625,-1.342257335782051,26.25,0.0,2.5295019149780273,-0.17559528350830078,-1.5340083837509155,21.75,0.0,2.604961395263672,-0.16129016876220703,-1.342257335782051,27.0,0.0,1.7931461334228516,-1.2985467910766602,0.0,14.5,0.0,2.9969215393066406,-0.8676052093505859,0.0,26.25,,,,,,,,,,,,,,,,,,,,
0.0,-0.8458335399627686,2.682516098022461,1.254751254009534e-07,-0.6910405158996582,-1.044651746749878,-4.597138172357518e-07,-0.3663616180419922,-0.7551174759864807,-8.633797961010714e-07,0.0,2.7637481689453125,-1.3289451599121094,0.19175104796886444,20.75,0.0,2.8259754180908203,-1.508474349975586,0.19175104796886444,18.25,0.0,2.994060516357422,-1.5156269073486328,0.3835020959377289,14.25,0.0,2.581357955932617,-1.0178089141845703,0.19175104796886444,21.75,0.0,2.707958221435547,-1.2127161026000977,0.19175104796886444,23.0,0.0,2.2205114364624023,-0.7234811782836914,-2.109261527657509,23.5,0.0,2.2859573364257812,-0.6769895553588867,-2.109261527657509,26.75,0.0,2.408623695373535,-0.6430149078369141,-2.109261527657509,23.75,0.0,2.0438432693481445,-1.0124444961547852,0.0,19.25,,,,,,,,,,,,,,,,,,,,,,,,,
0.0,-0.9846135377883911,2.5738396644592285,5.1046107785168715e-08,-0.8645141124725342,-1.0953915119171143,-5.784809786746337e-07,-0.5027196407318115,-0.6985846757888794,-8.831662512420735e-07,0.0,3.0280351638793945,-1.4734268188476562,0.3835020959377289,14.0,0.0,2.223372459411621,-1.0042190551757812,-0.9587552398443222,19.25,0.0,2.4940967559814453,-1.1154413223266602,-2.109261527657509,12.25,0.0,2.7709007263183594,-1.2012720108032227,0.7670041918754578,13.75,0.0,2.8753280639648438,-1.282811164855957,1.1505062878131866,18.75,0.0,2.953648567199707,-1.3217926025390625,1.1505062878131866,18.5,0.0,2.141118049621582,-0.7174015045166016,-1.1505062878131866,25.25,0.0,2.1715164184570312,-0.8053779602050781,-1.1505062878131866,25.0,,,,,,,,,,,,,,,,,,,,,,,,,,,,,,
0.0,-1.152982234954834,2.4320950508117676,-8.80040218476097e-09,-1.0639045238494873,-1.2126420736312866,-6.639692173848744e-07,-0.6404494643211365,-0.7379412651062012,-8.81770176874852e-07,0.0,1.9490718841552734,-1.0693073272705078,-0.5752531439065933,24.5,0.0,1.9855499267578125,-1.2431144714355469,-0.5752531439065933,23.25,0.0,2.09963321685791,-1.3407468795776367,0.19175104796886444,20.0,0.0,3.1557083129882812,-1.7902851104736328,-0.3835020959377289,12.25,0.0,2.729058265686035,-1.4684200286865234,-1.1505062878131866,13.5,,,,,,,,,,,,,,,,,,,,,,,,,,,,,,,,,,,,,,,,,,,,,
0.0,-1.2738826274871826,2.2897372245788574,-5.8918061540680355e-08,-1.1431231498718262,-1.3239293098449707,-7.246330824273173e-07,-0.6484283208847046,-0.7823189496994019,-8.648596008242748e-07,0.0,2.032041549682617,-1.2749433517456055,-0.7670041918754578,19.0,0.0,2.1657943725585938,-1.319289207458496,-0.19175104796886444,15.5,0.0,2.349257469177246,-1.3332366943359375,-0.19175104796886444,12.5,0.0,2.4994611740112305,-1.484513282775879,-1.5340083837509155,12.5,0.0,2.6407241821289062,-1.5492439270019531,-1.5340083837509155,12.5,0.0,1.9165277481079102,-1.0006427764892578,-0.3835020959377289,17.5,,,,,,,,,,,,,,,,,,,,,,,,,,,,,,,,,,,,,,,,
0.0,-1.3932842016220093,2.132657289505005,-1.0271106987147505e-07,-1.2311501502990723,-1.416002631187439,-7.692239023526781e-07,-0.6867839694023132,-0.7738121151924133,-8.394852102355799e-07,0.0,1.7663240432739258,-1.312851905822754,-0.19175104796886444,24.0,0.0,1.8954277038574219,-1.375436782836914,-0.19175104796886444,23.5,0.0,1.6754865646362305,-0.960230827331543,0.19175104796886444,12.75,0.0,1.7344951629638672,-1.0796785354614258,0.19175104796886444,17.0,0.0,2.143263816833496,-1.270294189453125,-0.3835020959377289,17.5,0.0,2.281665802001953,-1.2960433959960938,-0.3835020959377289,13.25,,,,,,,,,,,,,,,,,,,,,,,,,,,,,,,,,,,,,,,,
0.0,-0.1059999018907547,3.127293825149536,-2.1443316011726665e-09,-0.27544963359832764,-0.64691561460495,-4.447169299481857e-09,-0.41749677062034607,-0.44549667835235596,-1.5268883934993482e-09,0.0,3.591299057006836,-1.8249750137329102,-0.7670041918754578,13.5,0.0,3.31878662109375,-1.2935400009155273,-0.9587552398443222,19.0,0.0,3.4646987915039062,-1.4508962631225586,-0.7670041918754578,14.0,0.0,3.263711929321289,-1.170516014099121,-0.9587552398443222,23.75,0.0,3.2225847244262695,-0.9230375289916992,-0.9587552398443222,22.0,0.0,2.879619598388672,0.07724761962890625,-0.5752531439065933,18.0,0.0,2.962946891784668,-0.0171661376953125,-0.5752531439065933,22.5,0.0,3.0666589736938477,0.0035762786865234375,-0.5752531439065933,21.25,0.0,3.473997116088867,-1.1200904846191406,0.0,22.0,0.0,3.5991668701171875,-1.1794567108154297,0.0,19.5,,,,,,,,,,,,,,,,,,,,
0.0,-0.3100372850894928,3.0701475143432617,-1.748416300628719e-09,-0.6229432225227356,-0.691950798034668,-3.5580161039661107e-09,-0.67835533618927,-0.46211814880371094,-8.951270835666492e-10,0.0,3.2383203506469727,-2.0030736923217773,-1.1505062878131866,19.0,0.0,3.4428834915161133,-2.0914077758789062,-1.1505062878131866,14.75,0.0,3.4182071685791016,-1.284956932067871,-1.1505062878131866,17.5,0.0,3.2007694244384766,-0.7295608520507812,-0.9587552398443222,17.0,0.0,3.3502578735351562,-0.973820686340332,-0.19175104796886444,17.25,0.0,3.009796142578125,-0.5657672882080078,-0.5752531439065933,21.5,0.0,2.9261112213134766,-0.4248619079589844,-0.5752531439065933,22.25,0.0,2.8274059295654297,-0.1806020736694336,-0.9587552398443222,18.5,0.0,2.676844596862793,0.012516975402832031,-0.7670041918754578,14.5,0.0,3.5011768341064453,-1.4559030532836914,0.0,18.25,0.0,3.417491912841797,-1.2499094009399414,0.0,20.0,,,,,,,,,,,,,,,
0.0,-0.5006250739097595,3.035309314727783,-1.4294013750415502e-09,-0.9163035750389099,-0.6782105565071106,-2.7960731507903347e-09,-0.8750409483909607,-0.404610812664032,-3.7276404185604406e-10,0.0,3.460049629211426,-1.611471176147461,-0.19175104796886444,15.75,0.0,3.648519515991211,-1.7076730728149414,-0.3835020959377289,14.75,0.0,2.957940101623535,-0.6844997406005859,-0.7670041918754578,18.75,0.0,3.1850337982177734,-0.8018016815185547,-0.3835020959377289,14.25,0.0,3.397822380065918,-0.9105205535888672,-0.3835020959377289,15.5,0.0,3.509044647216797,-0.9598731994628906,-0.3835020959377289,17.25,0.0,2.8624534606933594,-0.6115436553955078,-0.5752531439065933,22.0,0.0,2.8020143508911133,-0.3236532211303711,-0.5752531439065933,19.0,0.0,2.660036087036133,-0.06830692291259766,-0.3835020959377289,15.75,0.0,3.6356449127197266,-1.7348527908325195,0.0,17.5,,,,,,,,,,,,,,,,,,,,
0.0,-0.6632932424545288,2.9377193450927734,-1.1941225785960796e-09,-1.119292140007019,-0.7909361720085144,-2.1614596779073736e-09,-0.9710069894790649,-0.49808427691459656,5.1022991387483785e-11,0.0,3.1213760375976562,-1.7048120498657227,-0.3835020959377289,12.25,0.0,3.276944160461426,-1.6597509384155273,-0.5752531439065933,16.0,0.0,3.3380985260009766,-1.7055273056030273,-0.5752531439065933,14.25,0.0,2.730131149291992,-0.8550882339477539,-0.9587552398443222,19.75,0.0,2.857089042663574,-0.9691715240478516,-1.342257335782051,14.75,0.0,2.6525259017944336,-0.4552602767944336,-0.9587552398443222,22.0,0.0,2.5752782821655273,-0.2614259719848633,-0.3835020959377289,23.5,0.0,2.5234222412109375,-0.19741058349609375,-0.3835020959377289,19.0,0.0,3.6481618881225586,-1.708388328552246,0.0,17.25,0.0,2.5202035903930664,-0.11086463928222656,0.0,15.25,0.0,2.582430839538574,-0.16379356384277344,0.0,18.75,,,,,,,,,,,,,,,
0.0,-0.800969660282135,2.811173915863037,-1.1161469526399515e-09,-1.248886227607727,-0.9311677813529968,-1.76312620059349e-09,-0.9937680959701538,-0.601286768913269,3.03813474378245e-10,0.0,2.6807785034179688,-1.397252082824707,-1.9175104796886444,15.0,0.0,2.6400089263916016,-1.1050701141357422,-1.1505062878131866,20.0,0.0,2.584218978881836,-0.9301900863647461,-0.3835020959377289,21.0,0.0,2.5327205657958984,-0.6494522094726562,-0.3835020959377289,19.75,0.0,2.4712085723876953,-0.4649162292480469,-0.3835020959377289,16.25,0.0,3.6388635635375977,-1.7277002334594727,0.0,17.5,0.0,2.514481544494629,-0.13947486877441406,0.0,16.25,0.0,2.5795698165893555,-0.171661376953125,0.0,19.25,,,,,,,,,,,,,,,,,,,,,,,,,,,,,,
0.0,-1.0307196378707886,2.689784526824951,-8.922889649376486e-10,-1.5125902891159058,-1.0917398929595947,-1.1816063683056655e-09,-1.1212724447250366,-0.74872225522995,6.644093053509437e-10,0.0,2.882838249206543,-1.6211271286010742,-0.9587552398443222,14.0,0.0,2.5148391723632812,-1.169443130493164,0.3835020959377289,21.25,0.0,2.7469396591186523,-1.3593435287475586,-1.9175104796886444,16.75,0.0,3.0881166458129883,-1.5871524810791016,-2.109261527657509,15.5,0.0,3.21042537689209,-1.6289949417114258,-2.109261527657509,14.5,0.0,2.358555793762207,-0.8844137191772461,-0.5752531439065933,14.25,0.0,2.424001693725586,-1.0532140731811523,-0.5752531439065933,19.25,0.0,2.647519111633301,-1.1619329452514648,0.3835020959377289,21.25,0.0,1.8357038497924805,-1.3318061828613281,0.0,22.75,0.0,1.976609230041504,-1.2742280960083008,0.0,23.0,0.0,3.395676612854004,-1.2778043746948242,0.0,15.25,0.0,3.2901763916015625,-1.141190528869629,0.0,16.5,0.0,3.201127052307129,-0.8003711700439453,0.0,12.25,0.0,3.048419952392578,-0.0997781753540039,0.0,19.75
0.0,-1.2460640668869019,2.525502920150757,-7.330300810792778e-10,-1.731647253036499,-1.2650301456451416,-7.335287932619394e-10,-1.2126853466033936,-0.8531777262687683,9.144138779504374e-10,0.0,1.8825531005859375,-1.2513399124145508,-0.19175104796886444,20.5,0.0,2.332448959350586,-1.3657808303833008,0.19175104796886444,25.5,0.0,2.3871660232543945,-1.4812946319580078,-0.3835020959377289,17.0,0.0,3.0312538146972656,-1.6415119171142578,-1.342257335782051,13.25,0.0,2.15756893157959,-1.1501312255859375,-0.9587552398443222,21.25,0.0,2.3081302642822266,-1.2180805206298828,0.19175104796886444,25.0,0.0,2.932906150817871,-1.5192031860351562,-1.72575943171978,13.0,0.0,1.8796920776367188,-1.284956932067871,0.0,24.25,0.0,2.04312801361084,-1.1930465698242188,0.0,24.75,0.0,3.2265186309814453,-1.668691635131836,0.0,14.75,0.0,3.2072067260742188,-1.338958740234375,0.0,16.75,0.0,3.172159194946289,-1.003861427307129,0.0,12.25,,,,,,,,,,
0.0,-1.3905121088027954,2.381678342819214,-6.296582144571516e-10,-1.7938600778579712,-1.3567266464233398,-4.0135322842971277e-10,-1.1641573905944824,-0.8486840724945068,1.0718199661141625e-09,0.0,2.2394657135009766,-1.239180564880371,0.19175104796886444,25.25,0.0,2.2644996643066406,-1.399397850036621,0.19175104796886444,23.0,0.0,2.440810203552246,-1.3911724090576172,0.19175104796886444,15.5,0.0,2.0731687545776367,-1.067519187927246,-0.7670041918754578,19.5,0.0,2.1865367889404297,-1.0907649993896484,-0.7670041918754578,23.25,0.0,1.9057989120483398,-1.256704330444336,0.0,25.25,0.0,3.2368898391723633,-1.6307830810546875,0.0,15.5,0.0,3.1392574310302734,-1.177668571472168,0.0,13.25,0.0,3.240823745727539,-1.2660026550292969,0.0,17.5,,,,,,,,,,,,,,,,,,,,,,,,,
0.0,-1.5262254476547241,2.2274110317230225,-5.387922885624619e-10,-1.8155052661895752,-1.4572380781173706,-1.1731500493272762e-10,-1.075609803199768,-0.8623502254486084,1.1879734973518907e-09,0.0,1.909017562866211,-1.3096332550048828,-0.19175104796886444,21.75,0.0,1.9905567169189453,-1.316070556640625,-0.19175104796886444,24.75,0.0,2.101778984069824,-1.3375282287597656,-0.7670041918754578,22.5,0.0,2.2913217544555664,-1.3121366500854492,0.19175104796886444,18.25,0.0,1.910090446472168,-1.2524127960205078,0.0,26.75,0.0,3.269791603088379,-1.1494159698486328,0.0,14.0,,,,,,,,,,,,,,,,,,,,,,,,,,,,,,,,,,,,,,,,
0.0,-0.3944098949432373,3.16811466217041,-4.892419802615677e-12,-0.1604779064655304,-0.2978852689266205,-1.0381964385408615e-11,-0.10779555141925812,-0.16533593833446503,-4.078451985856102e-12,0.0,3.148198127746582,-0.5425214767456055,-0.3835020959377289,20.75,0.0,3.322005271911621,-0.5879402160644531,-0.3835020959377289,17.0,0.0,3.0698776245117188,-0.31757354736328125,-0.3835020959377289,26.0,0.0,3.0405521392822266,-0.24211406707763672,-0.3835020959377289,23.25,0.0,2.9178857803344727,0.11730194091796875,-0.3835020959377289,14.25,0.0,3.447890281677246,-1.4526844024658203,0.0,15.0,,,,,,,,,,,,,,,,,,,,,,,,,,,,,,,,,,,,,,,,
0.0,-0.3763376474380493,3.1235861778259277,-4.318519934015663e-12,-0.10816492140293121,-0.3679995834827423,-8.749172393518467e-12,-0.04944387823343277,-0.24936941266059875,-2.8284345351958784e-12,0.0,3.366708755493164,-1.0989904403686523,-0.7670041918754578,16.25,0.0,3.288388252258301,-0.8540153503417969,-0.7670041918754578,21.75,0.0,3.1996965408325195,-0.5432367324829102,-0.7670041918754578,25.0,0.0,2.924680709838867,0.04398822784423828,-0.3835020959377289,22.0,0.0,2.9783248901367188,0.03612041473388672,-0.3835020959377289,28.0,0.0,3.0527114868164062,-0.031828880310058594,-0.3835020959377289,27.0,0.0,3.4428834915161133,-1.4476776123046875,0.0,15.25,0.0,2.9296875,0.05328655242919922,0.0,18.25,,,,,,,,,,,,,,,,,,,,,,,,,,,,,,
0.0,-0.41267019510269165,3.059882164001465,-3.986533325672781e-12,-0.15202906727790833,-0.4731721878051758,-7.485928543715659e-12,-0.07639287412166595,-0.3663026690483093,-1.8679194475901273e-12,0.0,3.033757209777832,-0.7692575454711914,-0.3835020959377289,23.25,0.0,3.105640411376953,-0.8836984634399414,-0.9587552398443222,23.25,0.0,3.210783004760742,-0.8744001388549805,-0.9587552398443222,15.75,0.0,2.891421318054199,0.004649162292480469,-0.7670041918754578,19.5,0.0,2.948641777038574,-0.05435943603515625,-0.7670041918754578,23.5,,,,,,,,,,,,,,,,,,,,,,,,,,,,,,,,,,,,,,,,,,,,,
0.0,-0.461554616689682,2.9785585403442383,-3.432660839602919e-12,-0.20925046503543854,-0.6151859164237976,-5.995834904959363e-12,-0.10876874625682831,-0.5222886800765991,-8.15719453789443e-13,0.0,1.8639564514160156,-1.4623403549194336,-0.19175104796886444,12.0,0.0,3.0916929244995117,-1.8038749694824219,-0.3835020959377289,16.5,0.0,3.247976303100586,-1.9168853759765625,-1.72575943171978,14.0,0.0,3.108859062194824,-1.382589340209961,-1.1505062878131866,19.75,0.0,3.097414970397949,-1.0335445404052734,-1.1505062878131866,21.5,0.0,3.018021583557129,-0.6519556045532227,-0.3835020959377289,24.25,0.0,2.830982208251953,-0.1291036605834961,-0.9587552398443222,25.25,0.0,2.902865409851074,-0.2664327621459961,-0.9587552398443222,26.25,0.0,2.7573108673095703,-0.07474422454833984,-0.9587552398443222,17.5,0.0,1.7963647842407227,-1.3818740844726562,0.0,22.75,0.0,1.8292665481567383,-1.445174217224121,0.0,22.25,0.0,1.9283294677734375,-1.5703439712524414,0.0,18.25,,,,,,,,,,
0.0,-0.6130397319793701,2.887005090713501,-2.8139632551188454e-12,-0.44502466917037964,-0.7365780472755432,-4.508914075440629e-12,-0.29821473360061646,-0.6091839671134949,1.6877449958430102e-13,0.0,2.9801130294799805,-1.417994499206543,-0.19175104796886444,17.75,0.0,2.901434898376465,-1.1197328567504883,-0.19175104796886444,29.25,0.0,2.9296875,-1.2202262878417969,-0.19175104796886444,26.0,0.0,2.8281211853027344,-0.9856224060058594,-0.19175104796886444,28.25,0.0,2.5566816329956055,-0.36013126373291016,-1.9175104796886444,14.25,0.0,2.667546272277832,-0.3236532211303711,-1.9175104796886444,24.5,0.0,2.743363380432129,-0.4388093948364258,-1.1505062878131866,27.0,0.0,1.7924308776855469,-1.3729333877563477,0.0,22.75,0.0,1.8314123153686523,-1.4426708221435547,0.0,22.25,0.0,2.0263195037841797,-1.4591217041015625,0.0,18.0,0.0,3.0362606048583984,-0.5017518997192383,0.0,24.25,0.0,2.96938419342041,-0.20599365234375,0.0,28.0,,,,,,,,,,
0.0,-0.7647349834442139,2.752974510192871,-2.2122811395297592e-12,-0.6457799077033997,-0.9491493701934814,-3.1124434626828013e-12,-0.42836982011795044,-0.8143720626831055,1.0547354005810416e-12,0.0,3.0573606491088867,-1.489877700805664,-0.9587552398443222,14.0,0.0,2.8127431869506836,-1.1955499649047852,-0.19175104796886444,20.25,0.0,2.9178857803344727,-1.306772232055664,-0.19175104796886444,15.75,0.0,2.2394657135009766,-0.7070302963256836,-1.9175104796886444,14.0,0.0,2.302408218383789,-0.800013542175293,-1.72575943171978,19.75,0.0,2.8002262115478516,-1.010298728942871,-0.19175104796886444,23.5,0.0,2.470850944519043,-0.7027387619018555,-1.72575943171978,19.25,0.0,2.7179718017578125,-0.6959438323974609,-1.72575943171978,19.75,0.0,1.7895698547363281,-1.3707876205444336,0.0,23.25,0.0,1.8843412399291992,-1.383662223815918,0.0,22.0,0.0,3.253340721130371,-1.0993480682373047,0.0,20.0,,,,,,,,,,,,,,,
0.0,-0.9452372789382935,2.6411566734313965,-1.6856962874178816e-12,-0.903826117515564,-1.0499746799468994,-1.90283747959763e-12,-0.6254125833511353,-0.8227449655532837,1.7640775992755486e-12,0.0,2.925395965576172,-1.7015933990478516,-0.3835020959377289,18.0,0.0,3.0695199966430664,-1.7788410186767578,-0.3835020959377289,12.5,0.0,2.8313398361206055,-1.3604164123535156,-0.19175104796886444,18.0,0.0,2.8935670852661133,-1.5202760696411133,-0.3835020959377289,19.75,0.0,2.520918846130371,-0.9434223175048828,-0.7670041918754578,19.0,0.0,2.748727798461914,-1.0843276977539062,-0.19175104796886444,16.75,0.0,2.228379249572754,-0.7374286651611328,-0.9587552398443222,23.25,0.0,2.2612810134887695,-0.7474422454833984,-0.9587552398443222,27.75,0.0,2.3124217987060547,-0.8393526077270508,-0.9587552398443222,23.5,0.0,2.0499229431152344,-1.0628700256347656,0.0,25.0,0.0,3.226161003112793,-1.1368989944458008,0.0,19.75,,,,,,,,,,,,,,,
0.0,-1.0632294416427612,2.4982120990753174,-1.3863190109764112e-12,-0.9897871017456055,-1.2239344120025635,-1.0673408771394444e-12,-0.6246052980422974,-0.9523420333862305,2.202536547243894e-12,0.0,2.1343231201171875,-1.248478889465332,-1.9175104796886444,19.75,0.0,2.283453941345215,-1.3958215713500977,-1.72575943171978,14.0,0.0,2.7480125427246094,-1.5270709991455078,-0.7670041918754578,14.5,0.0,2.865314483642578,-1.558542251586914,-0.7670041918754578,14.75,0.0,3.006577491760254,-1.6186237335205078,-0.19175104796886444,12.5,0.0,2.16829776763916,-0.8418560028076172,-0.7670041918754578,24.0,0.0,2.144336700439453,-0.7145404815673828,-0.7670041918754578,24.0,0.0,2.0470619201660156,-1.051783561706543,0.0,25.0,,,,,,,,,,,,,,,,,,,,,,,,,,,,,,
0.0,-1.1681653261184692,2.3337152004241943,-1.1123229073928265e-12,-0.9999247789382935,-1.454469919204712,-3.2541683106859787e-13,-0.5226162075996399,-1.1691347360610962,2.55995918907459e-12,0.0,1.981973648071289,-1.2935400009155273,-1.342257335782051,18.5,0.0,1.8439292907714844,-1.1408329010009766,-0.5752531439065933,19.75,0.0,2.215862274169922,-1.3221502304077148,-1.342257335782051,17.25,0.0,2.692580223083496,-1.4945268630981445,-1.9175104796886444,16.0,0.0,2.788066864013672,-1.6275644302368164,-1.5340083837509155,14.5,0.0,2.461552619934082,-1.2388229370117188,-1.342257335782051,15.0,0.0,2.6317834854125977,-1.2545585632324219,-1.9175104796886444,16.0,0.0,2.03704833984375,-1.026749610900879,0.0,24.5,,,,,,,,,,,,,,,,,,,,,,,,,,,,,,
0.0,-1.2834336757659912,2.1856162548065186,-9.821805911983117e-13,-1.102091670036316,-1.540779948234558,1.4195576951338967e-13,-0.5920683145523071,-1.1085299253463745,2.699806524175674e-12,0.0,1.89971923828125,-1.168370246887207,-0.3835020959377289,16.5,0.0,2.087831497192383,-1.1562108993530273,-0.19175104796886444,18.5,0.0,2.2412538528442383,-1.1397600173950195,-0.19175104796886444,16.0,,,,,,,,,,,,,,,,,,,,,,,,,,,,,,,,,,,,,,,,,,,,,,,,,,,,,,,
0.0,-1.3964259624481201,2.034245491027832,-8.111047098725843e-13,-1.1774009466171265,-1.6215693950653076,6.145677499888591e-13,-0.622702419757843,-1.0607266426086426,2.8343072246833634e-12,0.0,1.9075870513916016,-1.2534856796264648,-0.3835020959377289,19.75,0.0,2.0188093185424805,-1.292109489440918,-0.3835020959377289,23.25,0.0,2.087116241455078,-1.3042688369750977,-0.3835020959377289,20.25,0.0,2.0978450775146484,-0.9158849716186523,0.0,24.75,,,,,,,,,,,,,,,,,,,,,,,,,,,,,,,,,,,,,,,,,,,,,,,,,,
0.0,-0.2922896146774292,3.2349462509155273,3.670864448833299e-19,-0.37554261088371277,-0.32762882113456726,3.255169743379662e-19,-0.5444430112838745,-0.3045254349708557,-1.2821592885195444e-19,0.0,3.440380096435547,-1.500248908996582,-0.19175104796886444,12.25,0.0,3.4568309783935547,-0.9398460388183594,-0.19175104796886444,17.75,0.0,3.379940986633301,-0.7685422897338867,-0.19175104796886444,20.5,0.0,3.240823745727539,-0.40662288665771484,-0.3835020959377289,19.25,0.0,3.050565719604492,0.05042552947998047,-0.5752531439065933,20.0,0.0,3.0916929244995117,-0.031113624572753906,-0.5752531439065933,22.0,,,,,,,,,,,,,,,,,,,,,,,,,,,,,,,,,,,,,,,,
0.0,-0.4212425947189331,3.205198287963867,2.820151323334962e-19,-0.5714086294174194,-0.38709336519241333,1.8063229631790842e-19,-0.6586037874221802,-0.3606560528278351,-2.0619720495295765e-19,0.0,3.3735036849975586,-1.3546943664550781,-0.3835020959377289,22.75,0.0,3.4400224685668945,-1.427292823791504,-0.3835020959377289,17.0,0.0,3.3266544342041016,-1.1905431747436523,-0.3835020959377289,22.75,0.0,3.233671188354492,-0.6194114685058594,-0.3835020959377289,19.5,0.0,3.0155181884765625,0.0654458999633789,-0.5752531439065933,22.0,0.0,3.0688047409057617,-0.0035762786865234375,-0.3835020959377289,22.75,0.0,2.9321908950805664,0.13375282287597656,-0.5752531439065933,14.0,0.0,3.4761428833007812,1.455545425415039,-0.3835020959377289,12.75,0.0,3.517627716064453,-1.227736473083496,0.0,18.5,0.0,3.160715103149414,0.04184246063232422,0.0,26.75,,,,,,,,,,,,,,,,,,,,
0.0,-0.45236092805862427,3.1426117420196533,2.2581252655933973e-19,-0.578560471534729,-0.48556917905807495,7.536923359701682e-20,-0.6026517748832703,-0.4470656216144562,-2.570727675822726e-19,0.0,3.3159255981445312,-1.3031959533691406,-0.5752531439065933,14.75,0.0,3.2726526260375977,-1.0260343551635742,-0.7670041918754578,18.5,0.0,3.151059150695801,-0.7638931274414062,-0.5752531439065933,20.75,0.0,3.025174140930176,-0.194549560546875,-0.5752531439065933,24.0,0.0,2.946138381958008,0.013232231140136719,-0.5752531439065933,26.0,0.0,2.8989315032958984,0.09298324584960938,-0.5752531439065933,22.25,0.0,3.6363601684570312,-1.7334222793579102,0.0,12.5,0.0,3.4296512603759766,-1.1594295501708984,0.0,21.75,0.0,3.5026073455810547,-1.2845993041992188,0.0,18.5,0.0,3.428220748901367,1.6304254531860352,0.0,14.0,,,,,,,,,,,,,,,,,,,,
0.0,-0.4575168192386627,3.072740077972412,1.6912296989833095e-19,-0.5273451805114746,-0.6058915853500366,-2.5386370100882754e-20,-0.49764296412467957,-0.5632689595222473,-3.03119611687021e-19,0.0,3.2579898834228516,-1.3260841369628906,-0.9587552398443222,19.25,0.0,3.290891647338867,-1.4119148254394531,-0.9587552398443222,16.25,0.0,3.2465457916259766,-0.4527568817138672,-0.7670041918754578,17.5,0.0,3.033757209777832,-0.22995471954345703,-0.5752531439065933,19.5,0.0,2.902507781982422,-0.08940696716308594,-0.7670041918754578,23.25,0.0,2.7244091033935547,0.2485513687133789,-0.7670041918754578,15.5,0.0,2.823472023010254,0.10156631469726562,-0.7670041918754578,21.5,0.0,3.5036802291870117,-1.2820959091186523,0.0,17.75,0.0,3.356337547302246,1.748800277709961,0.0,13.5,,,,,,,,,,,,,,,,,,,,,,,,,
0.0,-0.45580294728279114,2.9926745891571045,1.2552604089750856e-19,-0.47028398513793945,-0.702928900718689,-1.0384835769122718e-19,-0.40173232555389404,-0.6210745573043823,-3.32859779087417e-19,0.0,3.128170967102051,-1.352548599243164,-0.9587552398443222,13.5,0.0,3.128170967102051,-0.891566276550293,-0.7670041918754578,17.5,0.0,2.986907958984375,-0.42057037353515625,-0.7670041918754578,19.75,0.0,2.844572067260742,-0.14591217041015625,-0.7670041918754578,25.0,0.0,2.785205841064453,-0.0050067901611328125,-0.7670041918754578,26.5,0.0,2.727985382080078,0.10192394256591797,-0.7670041918754578,20.75,0.0,3.3849477767944336,1.6762018203735352,0.0,12.75,,,,,,,,,,,,,,,,,,,,,,,,,,,,,,,,,,,
0.0,-0.5459640622138977,2.8832318782806396,8.383589245559162e-20,-0.5689089894294739,-0.8798278570175171,-1.7446686684815321e-19,-0.4387630522251129,-0.7839466333389282,-3.565649659855968e-19,0.0,2.870321273803711,-1.2009143829345703,-1.1505062878131866,27.5,0.0,2.9436349868774414,-1.3074874877929688,-0.9587552398443222,23.5,0.0,3.0530691146850586,-1.3593435287475586,-1.342257335782051,17.0,0.0,2.8477907180786133,-0.8475780487060547,-1.1505062878131866,26.0,0.0,2.751588821411133,-0.12874603271484375,-0.9587552398443222,24.0,0.0,2.5627613067626953,0.058650970458984375,-0.9587552398443222,16.5,0.0,2.636075019836426,0.05543231964111328,-0.9587552398443222,23.5,0.0,3.4035444259643555,1.6046762466430664,0.0,12.75,,,,,,,,,,,,,,,,,,,,,,,,,,,,,,
0.0,-0.7577703595161438,2.7463924884796143,4.516791300512251e-20,-0.8877567052841187,-1.0371506214141846,-2.3505415025430015e-19,-0.6721408367156982,-0.8590280413627625,-3.7242690386373124e-19,0.0,1.9147396087646484,-1.1723041534423828,-0.19175104796886444,21.75,0.0,2.8839111328125,-1.4530420303344727,-1.72575943171978,17.75,0.0,3.0412673950195312,-1.451253890991211,-0.3835020959377289,15.5,0.0,2.797365188598633,-1.2634992599487305,-0.5752531439065933,18.5,0.0,2.260565757751465,-0.7624626159667969,-1.342257335782051,20.75,0.0,2.7701854705810547,-0.9927749633789062,-0.5752531439065933,21.0,0.0,2.6972293853759766,-0.7109642028808594,-0.19175104796886444,21.5,0.0,2.559542655944824,-0.3190040588378906,-1.342257335782051,20.75,0.0,1.8031597137451172,-1.2220144271850586,0.0,17.75,0.0,3.486514091491699,-1.307845115661621,0.0,15.25,,,,,,,,,,,,,,,,,,,,
0.0,-0.8769891858100891,2.60105299949646,1.6431938021604493e-20,-0.9633994102478027,-1.2578755617141724,-2.764113972737557e-19,-0.6453480124473572,-1.0610851049423218,-3.751503443317738e-19,0.0,2.694368362426758,-1.3031959533691406,-0.19175104796886444,16.75,0.0,2.764463424682617,-1.4483928680419922,-1.342257335782051,18.75,0.0,2.921462059020996,-1.371145248413086,-1.342257335782051,18.0,0.0,2.0742416381835938,-0.9065866470336914,-2.109261527657509,18.75,0.0,3.085613250732422,-1.338958740234375,0.19175104796886444,13.0,0.0,2.2695064544677734,-0.7599592208862305,-1.9175104796886444,19.5,0.0,2.4579763412475586,-0.6451606750488281,-2.3010125756263733,19.75,0.0,2.623915672302246,-0.7710456848144531,-2.3010125756263733,17.0,0.0,1.8035173416137695,-1.262068748474121,0.0,17.0,0.0,3.384232521057129,-1.2624263763427734,0.0,17.75,0.0,3.267645835876465,-1.1043548583984375,0.0,17.75,,,,,,,,,,,,,,,
0.0,-1.0623706579208374,2.4567434787750244,-1.084581447721057e-20,-1.2232693433761597,-1.3323668241500854,-3.111732230765963e-19,-0.84617018699646,-0.9724670052528381,-3.735371094927481e-19,0.0,2.1353960037231445,-1.064300537109375,-0.3835020959377289,19.75,0.0,2.672910690307617,-1.318216323852539,0.5752531439065933,13.25,0.0,2.789139747619629,-1.384735107421875,0.5752531439065933,16.25,0.0,2.918243408203125,-1.4240741729736328,0.5752531439065933,14.75,0.0,3.0487775802612305,-1.556396484375,0.3835020959377289,13.0,0.0,1.993417739868164,-0.8361339569091797,-0.7670041918754578,17.25,0.0,1.9998550415039062,-0.8876323699951172,-0.7670041918754578,34.5,0.0,2.035975456237793,-0.9180307388305664,-0.7670041918754578,30.0,0.0,3.2755136489868164,-1.1082887649536133,0.0,17.5,,,,,,,,,,,,,,,,,,,,,,,,,
0.0,-1.242746114730835,2.293241024017334,-3.848286224549342e-20,-1.4241390228271484,-1.455223798751831,-3.4110630450547612e-19,-0.9615215063095093,-0.9782851338386536,-3.6882168886270716e-19,0.0,1.9437074661254883,-1.335740089416504,-0.19175104796886444,26.75,0.0,2.0585060119628906,-1.3350248336791992,0.19175104796886444,22.5,0.0,1.909017562866211,-1.2184381484985352,-0.19175104796886444,25.25,0.0,2.9751062393188477,-0.7624626159667969,0.0,19.0,0.0,2.8928518295288086,-0.1398324966430664,0.0,22.0,,,,,,,,,,,,,,,,,,,,,,,,,,,,,,,,,,,,,,,,,,,,,
0.0,-1.347914695739746,2.1168506145477295,-5.653041486597182e-20,-1.450491189956665,-1.5768756866455078,-3.5257596502974226e-19,-0.9048054814338684,-0.9931278824806213,-3.5227515563010853e-19,0.0,1.8310546875,-1.2148618698120117,-0.9587552398443222,26.0,0.0,1.9043684005737305,-1.28173828125,-0.9587552398443222,24.5,0.0,1.7824172973632812,-1.0542869567871094,0.19175104796886444,18.25,0.0,2.1321773529052734,-1.178741455078125,-0.19175104796886444,15.25,0.0,1.7366409301757812,-0.8929967880249023,0.19175104796886444,13.25,0.0,1.9243955612182617,-1.0728836059570312,0.0,29.5,0.0,2.04312801361084,-1.0478496551513672,0.0,26.25,0.0,3.17537784576416,-1.1583566665649414,0.0,15.25,,,,,,,,,,,,,,,,,,,,,,,,,,,,,,
0.0,-1.472787857055664,1.9610095024108887,-7.536101348967957e-20,-1.5230571031570435,-1.6347779035568237,-3.6258751292923055e-19,-0.9130181670188904,-0.9286088347434998,-3.360909275058081e-19,0.0,1.8099546432495117,-1.1676549911499023,0.19175104796886444,28.5,0.0,1.8382072448730469,-1.307845115661621,-0.19175104796886444,22.5,0.0,2.0456314086914062,-1.3647079467773438,-0.19175104796886444,16.25,0.0,1.7824172973632812,-1.1268854141235352,0.19175104796886444,20.0,0.0,1.9097328186035156,-1.0707378387451172,0.0,30.25,0.0,2.049565315246582,-1.0181665420532227,0.0,26.5,,,,,,,,,,,,,,,,,,,,,,,,,,,,,,,,,,,,,,,,
0.0,-0.919508695602417,2.68619704246521,2.4576005402743495e-23,-0.8011407852172852,-0.9425938129425049,1.1087043699162538e-22,-0.41277459263801575,-0.7888894081115723,9.600256094075875e-23,0.0,3.021240234375,-1.5156269073486328,-0.5752531439065933,13.25,0.0,3.157496452331543,-1.4526844024658203,-0.5752531439065933,16.75,0.0,3.223299980163574,-1.535654067993164,-0.5752531439065933,14.0,0.0,2.189755439758301,-0.9326934814453125,-1.9175104796886444,17.0,0.0,2.2537708282470703,-0.8972883224487305,-1.342257335782051,23.25,0.0,2.3238658905029297,-0.8475780487060547,-0.7670041918754578,21.0,0.0,2.5273561477661133,-0.7256269454956055,-1.1505062878131866,14.25,0.0,3.384232521057129,-0.9680986404418945,0.0,20.75,0.0,2.5441646575927734,-0.5228519439697266,0.0,22.25,0.0,3.069162368774414,-0.492095947265625,0.0,19.5,,,,,,,,,,,,,,,,,,,,
0.0,-1.064293384552002,2.5666933059692383,2.5608368736744508e-23,-0.9515542984008789,-1.0707770586013794,1.0560800900176843e-22,-0.5048508048057556,-0.8476027250289917,8.600020224845255e-23,0.0,2.0928382873535156,-0.9813308715820312,-0.3835020959377289,25.25,0.0,2.4340152740478516,-1.1490583419799805,0.3835020959377289,18.0,0.0,2.5974512100219727,-1.2924671173095703,0.19175104796886444,12.25,0.0,2.9872655868530273,-1.5399456024169922,-1.9175104796886444,15.75,0.0,3.08990478515625,-1.5728473663330078,-1.9175104796886444,17.0,0.0,3.2558441162109375,-1.488804817199707,-1.342257335782051,16.0,0.0,2.12860107421875,-0.9477138519287109,-0.3835020959377289,26.5,0.0,2.2634267807006836,-0.9419918060302734,-0.3835020959377289,20.25,0.0,2.373218536376953,-0.8769035339355469,0.0,23.25,0.0,2.6303529739379883,-0.6934404373168945,0.0,21.25,0.0,3.0362606048583984,-0.6036758422851562,0.0,14.0,,,,,,,,,,,,,,,
0.0,-1.1968456506729126,2.460099935531616,2.5700977851573834e-23,-1.072257161140442,-1.1457856893539429,9.881064701696864e-23,-0.5743141770362854,-0.8298112750053406,7.561913352365509e-23,0.0,2.1364688873291016,-1.209855079650879,-0.19175104796886444,21.0,0.0,2.3238658905029297,-1.3900995254516602,-0.19175104796886444,16.0,0.0,2.579927444458008,-1.4226436614990234,-0.19175104796886444,12.5,0.0,2.0481348037719727,-0.9655952453613281,-0.7670041918754578,26.0,0.0,2.7573108673095703,-1.4798641204833984,-2.4927636235952377,13.0,0.0,2.9926300048828125,-1.4426708221435547,0.19175104796886444,14.5,0.0,3.1331777572631836,-1.4301538467407227,0.19175104796886444,16.25,0.0,2.1092891693115234,-0.9545087814331055,-0.7670041918754578,25.5,0.0,3.2193660736083984,-1.4437437057495117,0.19175104796886444,12.0,0.0,3.221869468688965,-1.408696174621582,0.0,17.5,0.0,3.3452510833740234,-1.3496875762939453,0.0,17.75,0.0,2.3546218872070312,-0.8558034896850586,0.0,24.25,,,,,,,,,,
0.0,-1.3131517171859741,2.3520102500915527,2.858168330727475e-23,-1.167287826538086,-1.182597041130066,9.597017977832124e-23,-0.6332840323448181,-0.7507001161575317,6.86189585555666e-23,0.0,2.0585060119628906,-1.164078712463379,0.19175104796886444,26.0,0.0,2.116084098815918,-1.2363195419311523,0.19175104796886444,22.5,0.0,2.303481101989746,-1.3325214385986328,-0.19175104796886444,15.25,0.0,2.0406246185302734,-1.0567903518676758,0.19175104796886444,23.75,0.0,2.8084516525268555,-1.3175010681152344,-0.7670041918754578,12.25,0.0,3.2165050506591797,-1.3017654418945312,-0.19175104796886444,13.25,0.0,3.1861066818237305,-1.4977455139160156,0.0,17.0,0.0,2.104640007019043,-0.9208917617797852,0.0,26.5,0.0,2.159714698791504,-0.9555816650390625,0.0,27.5,0.0,3.3016204833984375,-1.4702081680297852,0.0,17.25,,,,,,,,,,,,,,,,,,,,
0.0,-1.4371570348739624,2.2176144123077393,3.2392664029510215e-23,-1.2472816705703735,-1.269348382949829,9.404459555222571e-23,-0.6559833288192749,-0.7526426315307617,6.263018530950559e-23,0.0,1.782059669494629,-1.5406608581542969,-0.19175104796886444,17.0,0.0,2.06601619720459,-1.3110637664794922,-0.19175104796886444,23.0,0.0,2.1489858627319336,-1.2710094451904297,-0.19175104796886444,23.0,0.0,2.238750457763672,-1.3332366943359375,-0.19175104796886444,16.75,0.0,3.141045570373535,-1.5159845352172852,0.0,16.0,0.0,2.104640007019043,-0.9158849716186523,0.0,26.75,0.0,2.1718740463256836,-0.9351968765258789,0.0,28.25,0.0,2.3006200790405273,-0.9552240371704102,0.0,25.0,,,,,,,,,,,,,,,,,,,,,,,,,,,,,,
0.0,-0.4028855264186859,3.0164875984191895,-2.184259211096092e-25,-0.343915194272995,-0.569597601890564,-8.668314240549908e-25,-0.24373309314250946,-0.45392316579818726,-6.141598184545731e-25,0.0,3.3066272735595703,-1.4269351959228516,-0.7670041918754578,13.75,0.0,3.292679786682129,-1.1190176010131836,-0.5752531439065933,14.0,0.0,3.11887264251709,-0.653386116027832,-0.5752531439065933,15.75,0.0,2.9386281967163086,-0.20885467529296875,-0.9587552398443222,25.0,0.0,2.841353416442871,0.0286102294921875,-0.7670041918754578,31.0,0.0,2.8656721115112305,-0.028252601623535156,-0.9587552398443222,31.75,0.0,2.7730464935302734,0.0972747802734375,-0.7670041918754578,22.0,,,,,,,,,,,,,,,,,,,,,,,,,,,,,,,,,,,
0.0,-0.4473230242729187,2.9393818378448486,-2.321346473129268e-25,-0.37861859798431396,-0.6692018508911133,-8.287673076562666e-25,-0.24735520780086517,-0.5325437784194946,-5.506006050676241e-25,0.0,2.987980842590332,-1.1208057403564453,-0.7670041918754578,20.5,0.0,3.143906593322754,-1.179814338684082,-1.1505062878131866,12.5,0.0,2.9479265213012695,-0.6433725357055664,-0.5752531439065933,25.25,0.0,2.8159618377685547,-0.19562244415283203,-0.9587552398443222,27.75,0.0,2.876400947570801,-0.27251243591308594,-0.5752531439065933,28.25,0.0,2.7333498001098633,-0.04112720489501953,-0.9587552398443222,21.0,,,,,,,,,,,,,,,,,,,,,,,,,,,,,,,,,,,,,,,,
0.0,-0.5487086772918701,2.836989402770996,-2.2554075622141067e-25,-0.4975821077823639,-0.8506826162338257,-7.590067107819555e-25,-0.3128342032432556,-0.7300863862037659,-4.689210101687156e-25,0.0,2.9740333557128906,-1.1601448059082031,-1.1505062878131866,23.25,0.0,3.0416250228881836,-1.3554096221923828,-1.72575943171978,17.75,0.0,2.8939247131347656,-0.8962154388427734,-1.1505062878131866,27.25,0.0,2.9354095458984375,-1.0235309600830078,-1.1505062878131866,28.75,0.0,2.7920007705688477,-0.3833770751953125,-0.9587552398443222,21.5,0.0,2.6203393936157227,-0.13768672943115234,-0.9587552398443222,20.5,0.0,2.512335777282715,-0.03898143768310547,-1.1505062878131866,16.25,,,,,,,,,,,,,,,,,,,,,,,,,,,,,,,,,,,
0.0,-0.7339485883712769,2.73740816116333,-2.1170847467881284e-25,-0.7804836630821228,-0.9294697046279907,-6.831209541052493e-25,-0.5406246781349182,-0.7141076326370239,-3.8990867724987577e-25,0.0,2.851724624633789,-1.7184019088745117,-0.3835020959377289,16.75,0.0,2.0678043365478516,-0.9466409683227539,-0.19175104796886444,18.75,0.0,2.7930736541748047,-1.2749433517456055,-0.3835020959377289,25.0,0.0,2.819180488586426,-1.4723539352416992,-0.5752531439065933,22.0,0.0,2.742648124694824,-1.1522769927978516,-0.3835020959377289,27.5,0.0,2.7104616165161133,-0.7141828536987305,-0.3835020959377289,26.5,0.0,2.4683475494384766,-0.2950429916381836,-1.1505062878131866,22.0,0.0,2.590656280517578,-0.3000497817993164,-1.1505062878131866,25.5,0.0,1.8839836120605469,-1.5202760696411133,0.0,19.25,0.0,1.8814802169799805,-1.2892484664916992,0.0,15.25,,,,,,,,,,,,,,,,,,,,
0.0,-0.8923385739326477,2.608280658721924,-1.9774405893459049e-25,-0.9674977660179138,-1.080195665359497,-6.056005297215054e-25,-0.6485292911529541,-0.8143278360366821,-3.128765331145604e-25,0.0,2.793431282043457,-1.6669034957885742,-0.7670041918754578,18.5,0.0,2.9153823852539062,-1.7205476760864258,0.3835020959377289,16.0,0.0,2.7741193771362305,-1.3593435287475586,-0.3835020959377289,18.75,0.0,2.577066421508789,-0.9981393814086914,-0.3835020959377289,23.0,0.0,2.7011632919311523,-1.0972023010253906,-0.3835020959377289,18.5,0.0,2.1615028381347656,-0.7073879241943359,-2.109261527657509,26.25,0.0,2.2301673889160156,-0.7098913192749023,-1.342257335782051,27.25,0.0,2.382516860961914,-0.8203983306884766,-1.342257335782051,22.75,,,,,,,,,,,,,,,,,,,,,,,,,,,,,,
0.0,-1.1232342720031738,2.4802935123443604,-1.8888009732878445e-25,-1.316653847694397,-1.1403435468673706,-5.395009377007119e-25,-0.9372698664665222,-0.7321664094924927,-2.4930326814273717e-25,0.0,1.9680261611938477,-1.1494159698486328,0.19175104796886444,24.0,0.0,2.132892608642578,-1.2481212615966797,0.3835020959377289,18.25,0.0,2.74658203125,-1.5066862106323242,0.3835020959377289,15.75,0.0,2.8334856033325195,-1.628279685974121,0.3835020959377289,16.0,0.0,1.953721046447754,-0.9262561798095703,-0.7670041918754578,27.75,0.0,2.6128292083740234,-1.3768672943115234,0.3835020959377289,12.5,0.0,3.009796142578125,-1.6275644302368164,0.5752531439065933,14.0,0.0,1.9598007202148438,-0.7302761077880859,-0.7670041918754578,13.5,,,,,,,,,,,,,,,,,,,,,,,,,,,,,,
0.0,-1.282142162322998,2.3515655994415283,-1.8329735335443864e-25,-1.4351370334625244,-1.2570247650146484,-4.768053790935602e-25,-0.9437405467033386,-0.7986377477645874,-1.898435430130922e-25,0.0,1.9054412841796875,-1.2928247451782227,-0.3835020959377289,19.25,0.0,1.9812583923339844,-1.291036605834961,-0.3835020959377289,22.25,0.0,2.116084098815918,-1.2595653533935547,-0.5752531439065933,18.0,0.0,2.5838613510131836,-1.4537572860717773,-1.342257335782051,12.25,0.0,2.765178680419922,-1.4162063598632812,-1.342257335782051,13.5,0.0,2.902507781982422,-1.5610456466674805,-0.3835020959377289,12.5,0.0,3.061652183532715,-1.6186237335205078,-0.3835020959377289,13.75,,,,,,,,,,,,,,,,,,,,,,,,,,,,,,,,,,,
0.0,-1.3930070400238037,2.2100698947906494,-1.93680118721828e-25,-1.4448719024658203,-1.3638311624526978,-4.401675725152821e-25,-0.8532967567443848,-0.8389917016029358,-1.5189170370789384e-25,0.0,1.9719600677490234,-1.1855363845825195,-0.19175104796886444,18.75,0.0,2.0263195037841797,-1.2656450271606445,-0.7670041918754578,21.75,0.0,2.130746841430664,-1.2985467910766602,-0.7670041918754578,19.75,0.0,2.258777618408203,-1.4187097549438477,-1.1505062878131866,15.25,0.0,3.062725067138672,-1.405477523803711,0.0,17.0,,,,,,,,,,,,,,,,,,,,,,,,,,,,,,,,,,,,,,,,,,,,,
0.0,-0.46994107961654663,3.179893970489502,1.2270418444045084e-34,-0.39349570870399475,-0.2560625374317169,9.521856889965776e-34,-0.17457467317581177,-0.27330872416496277,1.1186739844749113e-33,0.0,3.327012062072754,-1.1851787567138672,-0.19175104796886444,19.25,0.0,3.4339427947998047,-1.1805295944213867,-0.19175104796886444,18.75,0.0,3.5011768341064453,-1.2581348419189453,-0.19175104796886444,14.75,0.0,3.2050609588623047,-0.20599365234375,-0.3835020959377289,18.0,0.0,3.015875816345215,0.05900859832763672,-0.3835020959377289,22.0,0.0,3.063082695007324,-0.012516975402832031,-0.3835020959377289,23.25,0.0,2.9175281524658203,0.2027750015258789,-0.3835020959377289,14.5,0.0,3.3388137817382812,-0.9952783584594727,0.0,25.5,0.0,3.4650564193725586,-1.0167360305786133,0.0,21.5,,,,,,,,,,,,,,,,,,,,,,,,,
0.0,-0.4730953574180603,3.1467301845550537,1.6793756292264007e-34,-0.3437461853027344,-0.30204665660858154,9.917074621101537e-34,-0.11537957191467285,-0.30405551195144653,1.0741232077562274e-33,0.0,3.244757652282715,-1.5921592712402344,-0.19175104796886444,16.75,0.0,3.274083137512207,-1.7527341842651367,-0.19175104796886444,12.5,0.0,3.346681594848633,-1.1408329010009766,-0.19175104796886444,17.5,0.0,3.1746625900268555,-0.5553960800170898,-0.3835020959377289,12.5,0.0,2.9114484786987305,0.09083747863769531,-0.3835020959377289,21.75,0.0,2.943277359008789,0.04184246063232422,-0.3835020959377289,26.75,0.0,2.970099449157715,0.01823902130126953,-0.3835020959377289,23.5,0.0,3.3173561096191406,1.761317253112793,0.0,13.25,,,,,,,,,,,,,,,,,,,,,,,,,,,,,,
0.0,-0.47678235173225403,3.100142002105713,1.950170612364359e-34,-0.29353007674217224,-0.3810572028160095,9.961074844020754e-34,-0.056128330528736115,-0.38151785731315613,1.0098727069211967e-33,0.0,3.1839609146118164,-1.5664100646972656,-0.19175104796886444,17.25,0.0,3.249049186706543,-1.1554956436157227,-0.5752531439065933,20.75,0.0,3.177523612976074,-0.9355545043945312,-0.3835020959377289,21.5,0.0,3.02731990814209,-0.11944770812988281,-0.19175104796886444,22.0,0.0,2.910017967224121,0.03361701965332031,-0.5752531439065933,25.75,0.0,2.7512311935424805,0.22029876708984375,-0.9587552398443222,14.75,0.0,2.854585647583008,0.10371208190917969,-0.5752531439065933,23.25,,,,,,,,,,,,,,,,,,,,,,,,,,,,,,,,,,,
0.0,-0.5260113477706909,3.0544559955596924,2.077835038582169e-34,-0.32350367307662964,-0.4724419116973877,9.729776126687314e-34,-0.06667046993970871,-0.4784300625324249,9.316766186525903e-34,0.0,3.222227096557617,-1.6150474548339844,-0.19175104796886444,18.25,0.0,3.4332275390625,-1.4584064483642578,-0.19175104796886444,14.75,0.0,3.253340721130371,-1.100778579711914,-0.5752531439065933,18.25,0.0,3.211855888366699,-0.7020235061645508,-0.5752531439065933,21.25,0.0,3.06093692779541,-0.4488229751586914,-0.7670041918754578,20.25,0.0,2.8971433639526367,-0.1201629638671875,-0.7670041918754578,23.25,0.0,2.819180488586426,-0.05936622619628906,-0.7670041918754578,22.0,0.0,2.70688533782959,0.10657310485839844,-0.7670041918754578,16.25,,,,,,,,,,,,,,,,,,,,,,,,,,,,,,
0.0,-0.5605756640434265,2.9980838298797607,2.034456082794461e-34,-0.3198470175266266,-0.5808514952659607,9.204383416457523e-34,-0.044061895459890366,-0.5918497443199158,8.388131159506066e-34,0.0,3.2622814178466797,-1.3886690139770508,-0.3835020959377289,20.75,0.0,3.483295440673828,-1.3396739959716797,-0.19175104796886444,15.0,0.0,3.7447214126586914,-1.4848709106445312,-0.3835020959377289,12.25,0.0,3.1921863555908203,-1.0128021240234375,-0.3835020959377289,23.25,0.0,3.2175779342651367,-1.1823177337646484,-0.3835020959377289,24.25,0.0,3.0820369720458984,-0.6537437438964844,-0.3835020959377289,20.0,0.0,2.8613805770874023,-0.1348257064819336,-1.1505062878131866,22.5,0.0,2.669692039489746,0.05936622619628906,-1.1505062878131866,22.5,0.0,2.744436264038086,-0.011086463928222656,-1.1505062878131866,25.25,0.0,2.553105354309082,0.1112222671508789,-1.1505062878131866,15.25,,,,,,,,,,,,,,,,,,,,
0.0,-0.6709216833114624,2.8930840492248535,2.1485722478528234e-34,-0.4432508051395416,-0.7848594784736633,8.83704877866525e-34,-0.12332291901111603,-0.8143337965011597,7.599238074392516e-34,0.0,3.186464309692383,-1.6407966613769531,-0.3835020959377289,15.0,0.0,3.183603286743164,-1.3346672058105469,-0.3835020959377289,17.0,0.0,2.510190010070801,-0.8078813552856445,-1.342257335782051,15.5,0.0,2.948641777038574,-1.0085105895996094,-1.5340083837509155,19.0,0.0,3.085970878601074,-1.095414161682129,-0.5752531439065933,15.5,0.0,2.8792619705200195,-0.6995201110839844,-1.5340083837509155,18.25,0.0,2.726912498474121,-0.5990266799926758,-1.342257335782051,17.75,0.0,2.398252487182617,-0.13554096221923828,-1.1505062878131866,12.25,0.0,3.2529830932617188,-1.2159347534179688,0.0,20.75,0.0,3.288745880126953,-1.4001131057739258,0.0,20.0,,,,,,,,,,,,,,,,,,,,
0.0,-0.7491864562034607,2.787261962890625,2.0500173780296924e-34,-0.489784836769104,-0.9698003530502319,8.135936193376836e-34,-0.1260838508605957,-0.9910537004470825,6.636180807525259e-34,0.0,3.11279296875,-1.7555952072143555,-0.7670041918754578,19.0,0.0,3.1785964965820312,-1.9104480743408203,-0.7670041918754578,12.5,0.0,3.0748844146728516,-1.650094985961914,-0.7670041918754578,19.5,0.0,3.0670166015625,-1.3747215270996094,-0.5752531439065933,16.25,0.0,3.000497817993164,-1.0281801223754883,-0.9587552398443222,12.25,0.0,2.79843807220459,-0.7259845733642578,-1.5340083837509155,12.75,0.0,2.601027488708496,-0.5543231964111328,-1.5340083837509155,17.75,0.0,2.521634101867676,-0.3654956817626953,-1.342257335782051,20.75,0.0,2.443671226501465,-0.2238750457763672,-1.342257335782051,18.75,0.0,2.3213624954223633,-0.03325939178466797,-1.1505062878131866,13.75,0.0,3.252267837524414,-1.2280941009521484,0.0,20.75,0.0,3.2662153244018555,-1.4562606811523438,0.0,20.25,,,,,,,,,,
0.0,-0.8714212775230408,2.6502349376678467,2.1737064752075636e-34,-0.6190627217292786,-1.166729211807251,7.747152457101904e-34,-0.2103864848613739,-1.1314295530319214,5.934116806496648e-34,0.0,3.0333995819091797,-1.6540288925170898,-1.1505062878131866,19.25,0.0,2.972245216369629,-1.5971660614013672,-1.1505062878131866,17.0,0.0,3.1589269638061523,-1.6100406646728516,-1.1505062878131866,16.0,0.0,2.192974090576172,-0.9223222732543945,-1.1505062878131866,20.5,0.0,2.27200984954834,-0.8286237716674805,-1.1505062878131866,26.75,0.0,2.3027658462524414,-0.8189678192138672,-1.1505062878131866,24.0,0.0,2.4536848068237305,-0.8651018142700195,-1.1505062878131866,14.5,0.0,3.2422542572021484,-1.2499094009399414,0.0,21.5,0.0,3.2722949981689453,-1.4322996139526367,0.0,20.5,0.0,3.031611442565918,-0.29397010803222656,0.0,16.75,0.0,2.7576684951782227,-0.10907649993896484,0.0,28.5,0.0,2.8553009033203125,-0.04971027374267578,0.0,25.75,,,,,,,,,,
0.0,-0.9539707899093628,2.4862053394317627,2.176771025714356e-34,-0.6349353790283203,-1.412424087524414,7.147662276797038e-34,-0.1624797135591507,-1.3439885377883911,5.122071533624188e-34,0.0,2.279520034790039,-1.3350248336791992,-1.9175104796886444,12.75,0.0,2.772688865661621,-1.613616943359375,-1.9175104796886444,14.5,0.0,2.8867721557617188,-1.5835762023925781,-1.9175104796886444,17.75,0.0,2.1976232528686523,-1.0939836502075195,-1.9175104796886444,20.0,0.0,3.0208826065063477,-1.568913459777832,-1.1505062878131866,15.0,0.0,2.16829776763916,-0.8486509323120117,-1.1505062878131866,24.25,0.0,2.148270606994629,-0.6487369537353516,-1.1505062878131866,24.75,0.0,3.2465457916259766,-1.474142074584961,0.0,18.75,0.0,3.215789794921875,-1.2384653091430664,0.0,21.0,0.0,3.0183792114257812,-0.22101402282714844,0.0,19.0,0.0,2.856731414794922,-0.05936622619628906,0.0,23.25,,,,,,,,,,,,,,,
0.0,-1.0845128297805786,2.319567918777466,2.556550062002257e-34,-0.7895113825798035,-1.563651442527771,7.142452908277476e-34,-0.30064451694488525,-1.3356910943984985,4.782025813515263e-34,0.0,1.8743276596069336,-1.1626482009887695,-0.19175104796886444,21.25,0.0,2.0563602447509766,-1.1937618255615234,-0.19175104796886444,22.0,0.0,2.1550655364990234,-1.2634992599487305,-1.5340083837509155,17.75,0.0,2.834916114807129,-0.17702579498291016,0.0,20.25,,,,,,,,,,,,,,,,,,,,,,,,,,,,,,,,,,,,,,,,,,,,,,,,,,
0.0,-1.2502171993255615,2.1502339839935303,2.720026428713097e-34,-1.0077427625656128,-1.6823118925094604,6.808962865061789e-34,-0.4997556507587433,-1.2768815755844116,4.254860678209623e-34,0.0,1.841425895690918,-1.2881755828857422,-0.19175104796886444,25.5,0.0,1.8918514251708984,-1.2881755828857422,-0.19175104796886444,24.0,0.0,2.078890800476074,-1.2402534484863281,-0.7670041918754578,14.5,0.0,2.8488636016845703,-1.246333122253418,-0.5752531439065933,12.75,,,,,,,,,,,,,,,,,,,,,,,,,,,,,,,,,,,,,,,,,,,,,,,,,,
0.0,-1.3713244199752808,1.9944051504135132,2.778859461794272e-34,-1.131100058555603,-1.7441208362579346,6.340507703272472e-34,-0.6062694787979126,-1.1674952507019043,3.6793042057359717e-34,0.0,1.71661376953125,-1.2230873107910156,0.19175104796886444,13.5,0.0,1.8439292907714844,-1.238107681274414,0.19175104796886444,24.0,0.0,2.033114433288574,-1.1419057846069336,-0.5752531439065933,23.75,0.0,2.201557159423828,-1.0585784912109375,-0.5752531439065933,18.5,0.0,2.0717382431030273,-0.9173154830932617,0.0,25.5,0.0,3.2515525817871094,-1.4355182647705078,0.0,16.5,,,,,,,,,,,,,,,,,,,,,,,,,,,,,,,,,,,,,,,,
0.0,-0.41189178824424744,3.2232563495635986,-6.364285082695422e-37,-0.19966308772563934,-0.35739535093307495,-3.441077117237151e-36,-0.038261882960796356,-0.06918796896934509,-3.0795107243557476e-36,0.0,3.2987594604492188,-1.2559890747070312,-0.3835020959377289,16.25,0.0,3.2930374145507812,-0.973820686340332,-0.3835020959377289,21.25,0.0,3.2254457473754883,-0.4928112030029297,-0.19175104796886444,21.5,0.0,3.085970878601074,0.04649162292480469,-0.19175104796886444,24.25,0.0,3.045201301574707,0.1283884048461914,-0.5752531439065933,23.0,0.0,3.736138343811035,-1.5059709548950195,0.0,13.75,0.0,3.587007522583008,-1.2073516845703125,0.0,17.25,0.0,3.3434629440307617,-0.8568763732910156,0.0,24.25,0.0,3.46219539642334,-1.0306835174560547,0.0,19.5,0.0,3.2215118408203125,0.09226799011230469,0.0,25.75,0.0,3.072381019592285,0.18131732940673828,0.0,23.75,0.0,3.131389617919922,0.14197826385498047,0.0,28.0,,,,,,,,,,
0.0,-0.39904433488845825,3.152147054672241,-6.938007614660094e-37,-0.13899801671504974,-0.4549882709980011,-3.3617050610909456e-36,0.024671651422977448,-0.19865822792053223,-2.8416693449407907e-36,0.0,3.32486629486084,-1.28173828125,-0.19175104796886444,18.5,0.0,3.2962560653686523,-1.1680126190185547,-0.19175104796886444,20.0,0.0,3.2393932342529297,-0.8615255355834961,-0.19175104796886444,18.5,0.0,2.888202667236328,0.07045269012451172,-0.9587552398443222,23.5,0.0,3.0176639556884766,-0.016808509826660156,-0.9587552398443222,18.75,0.0,2.72977352142334,0.2313852310180664,-0.9587552398443222,15.75,0.0,2.822756767272949,0.14591217041015625,-0.9587552398443222,22.25,0.0,3.324151039123535,-1.0235309600830078,0.0,24.5,0.0,3.4110546112060547,-1.1147260665893555,0.0,19.0,0.0,3.596663475036621,-1.0811090469360352,0.0,15.75,0.0,3.220081329345703,-0.03647804260253906,0.0,25.0,0.0,3.0194520950317383,0.15664100646972656,0.0,25.25,0.0,3.1059980392456055,0.12087821960449219,0.0,28.0,,,,,
0.0,-0.35505759716033936,3.078855037689209,-7.135713115563737e-37,-0.0339522585272789,-0.5294092297554016,-3.225793190298408e-36,0.11529936641454697,-0.270608127117157,-2.584604751405247e-36,0.0,3.187894821166992,-0.7807016372680664,-0.7670041918754578,20.5,0.0,3.2973289489746094,-0.7599592208862305,-0.19175104796886444,17.5,0.0,3.4346580505371094,-0.8722543716430664,-0.19175104796886444,12.75,0.0,3.120303153991699,-0.5285739898681641,-0.19175104796886444,21.0,0.0,2.730846405029297,0.08118152618408203,-1.1505062878131866,20.5,0.0,2.9218196868896484,-0.007867813110351562,-0.7670041918754578,19.25,0.0,2.5506019592285156,0.1895427703857422,-0.7670041918754578,14.25,0.0,2.619624137878418,0.1766681671142578,-0.7670041918754578,20.5,0.0,3.770112991333008,-1.4187097549438477,0.0,12.75,0.0,3.314495086669922,-0.9670257568359375,0.0,22.0,0.0,3.438234329223633,-1.0167360305786133,0.0,19.0,0.0,3.6084651947021484,-1.0396242141723633,0.0,16.25,0.0,3.2404661178588867,-0.22101402282714844,0.0,23.75,0.0,3.116726875305176,0.03147125244140625,0.0,27.25
0.0,-0.3794673681259155,3.0320186614990234,-7.665112464997938e-37,-0.05935198813676834,-0.5541582107543945,-3.1222092078155174e-36,0.08455543220043182,-0.2759983539581299,-2.362029229564522e-36,0.0,3.2050609588623047,-2.008795738220215,-0.3835020959377289,14.75,0.0,3.265857696533203,-0.8658170700073242,-0.3835020959377289,21.5,0.0,3.3077001571655273,-0.9230375289916992,-0.3835020959377289,22.25,0.0,3.4013986587524414,-0.9294748306274414,-0.3835020959377289,17.0,0.0,3.153562545776367,-0.5521774291992188,-0.19175104796886444,17.25,0.0,2.8856992721557617,-0.13196468353271484,-0.9587552398443222,16.5,0.0,2.6471614837646484,0.09298324584960938,-0.7670041918754578,19.0,0.0,2.7118921279907227,0.08690357208251953,-0.9587552398443222,20.0,0.0,3.766179084777832,-1.429438591003418,0.0,12.75,0.0,3.406405448913574,-1.0256767272949219,0.0,19.75,0.0,3.555178642272949,-1.1762380599975586,0.0,14.75,0.0,3.3255815505981445,-0.9698867797851562,0.0,21.25,,,,,,,,,,
0.0,-0.4860501289367676,2.9266457557678223,-7.0253854122472526e-37,-0.218196839094162,-0.7315894365310669,-2.8395312997958625e-36,-0.04593093693256378,-0.4995355010032654,-2.0324728880802812e-36,0.0,3.141045570373535,-1.1816024780273438,-1.342257335782051,12.75,0.0,3.3735036849975586,-1.3564825057983398,-0.3835020959377289,18.5,0.0,3.423929214477539,-1.5206336975097656,-0.3835020959377289,15.5,0.0,3.304123878479004,-1.2291669845581055,-1.342257335782051,16.5,0.0,2.770543098449707,-0.6587505340576172,-1.1505062878131866,16.25,0.0,3.00443172454834,-0.8014440536499023,-1.342257335782051,12.25,0.0,2.5985240936279297,-0.4023313522338867,-1.1505062878131866,21.0,0.0,2.4994611740112305,-0.12981891632080078,-0.7670041918754578,23.25,0.0,2.525925636291504,-0.2124309539794922,-1.1505062878131866,25.75,0.0,2.4143457412719727,-0.04792213439941406,-0.7670041918754578,12.5,0.0,3.4117698669433594,-1.0317564010620117,0.0,20.75,0.0,3.5212039947509766,-1.2427568435668945,0.0,16.0,0.0,3.332376480102539,-0.9741783142089844,0.0,22.0,,,,,
0.0,-0.5731488466262817,2.8190462589263916,-7.409337155732675e-37,-0.3309882581233978,-0.8661754131317139,-2.6970885261701048e-36,-0.1311456263065338,-0.6196464896202087,-1.8105916928130474e-36,0.0,3.107786178588867,-2.0595788955688477,-0.3835020959377289,14.0,0.0,3.196835517883301,-1.4848709106445312,-0.7670041918754578,14.0,0.0,3.2318830490112305,-1.674056053161621,-0.7670041918754578,16.5,0.0,2.4493932723999023,-0.559687614440918,-1.1505062878131866,20.0,0.0,2.3589134216308594,-0.38552284240722656,-1.1505062878131866,13.0,0.0,2.4079084396362305,-0.4477500915527344,-1.1505062878131866,21.0,0.0,2.6274919509887695,-0.5432367324829102,-0.9587552398443222,16.5,0.0,2.82132625579834,-0.5700588226318359,-0.9587552398443222,14.75,,,,,,,,,,,,,,,,,,,,,,,,,,,,,,
0.0,-0.7161273956298828,2.7004354000091553,-7.23968273538401e-37,-0.5347995758056641,-1.0054984092712402,-2.473609716128888e-36,-0.2916208505630493,-0.725275993347168,-1.5487256453777904e-36,0.0,3.0927658081054688,-1.5499591827392578,-0.9587552398443222,17.0,0.0,3.1746625900268555,-1.6143321990966797,-0.5752531439065933,14.25,0.0,3.0559301376342773,-1.361846923828125,-1.1505062878131866,15.0,0.0,2.327442169189453,-0.7953643798828125,-0.9587552398443222,20.25,0.0,2.552032470703125,-0.7942914962768555,-0.9587552398443222,16.25,0.0,2.7866363525390625,-0.8361339569091797,-1.342257335782051,13.0,0.0,2.2759437561035156,-0.5707740783691406,-0.9587552398443222,20.5,0.0,2.28273868560791,-0.6297826766967773,-0.9587552398443222,24.5,,,,,,,,,,,,,,,,,,,,,,,,,,,,,,
0.0,-0.8673874735832214,2.5760369300842285,-7.530044332826352e-37,-0.738783597946167,-1.126213550567627,-2.3156158926654394e-36,-0.445180743932724,-0.783263087272644,-1.3446013455180738e-36,0.0,2.8706789016723633,-1.7055273056030273,-1.9175104796886444,15.5,0.0,3.027677536010742,-1.6644001007080078,-1.9175104796886444,16.5,0.0,3.154635429382324,-1.6736984252929688,-1.9175104796886444,14.5,0.0,2.124309539794922,-0.8157491683959961,-0.19175104796886444,26.0,0.0,2.136826515197754,-0.7982254028320312,-0.19175104796886444,25.25,0.0,2.2559165954589844,-0.7903575897216797,-0.19175104796886444,15.5,,,,,,,,,,,,,,,,,,,,,,,,,,,,,,,,,,,,,,,,
0.0,-1.03249192237854,2.431088447570801,-7.845678628332485e-37,-0.9581738114356995,-1.2437355518341064,-2.1635481491972325e-36,-0.6109960675239563,-0.8078652024269104,-1.157790099395478e-36,0.0,2.0198822021484375,-1.1165142059326172,-0.3835020959377289,26.0,0.0,2.1468400955200195,-1.1740922927856445,-0.3835020959377289,21.0,0.0,1.9844770431518555,-1.043558120727539,-0.3835020959377289,27.25,0.0,2.3463964462280273,-1.246333122253418,1.342257335782051,14.5,0.0,2.927541732788086,-1.4716386795043945,-2.3010125756263733,12.75,,,,,,,,,,,,,,,,,,,,,,,,,,,,,,,,,,,,,,,,,,,,,
0.0,-1.1397324800491333,2.2865421772003174,-7.80441274273954e-37,-1.0440425872802734,-1.338591456413269,-1.9646812521263575e-36,-0.6410528421401978,-0.8096035122871399,-9.520450465215357e-37,0.0,2.23696231842041,-1.237034797668457,-0.3835020959377289,20.25,0.0,2.294182777404785,-1.3200044631958008,-0.7670041918754578,13.25,0.0,1.886129379272461,-0.8747577667236328,-0.5752531439065933,12.75,0.0,1.9490718841552734,-0.8987188339233398,-0.3835020959377289,21.25,0.0,2.1021366119384766,-1.074671745300293,-0.3835020959377289,18.0,,,,,,,,,,,,,,,,,,,,,,,,,,,,,,,,,,,,,,,,,,,,,
0.0,-0.523901104927063,2.9819443225860596,-2.899530348620839e-39,-0.602457582950592,-0.8186066150665283,1.651973944010955e-39,-0.5414842963218689,-0.4516257047653198,7.826125806392314e-39,0.0,3.133535385131836,-1.0199546813964844,-0.3835020959377289,22.0,0.0,3.24404239654541,-1.0528564453125,-0.3835020959377289,19.75,0.0,3.3359527587890625,-1.1522769927978516,-0.19175104796886444,15.75,0.0,3.0519962310791016,-0.640869140625,-0.3835020959377289,21.75,0.0,2.922534942626953,-0.27358531951904297,-0.3835020959377289,22.25,0.0,2.8055906295776367,-0.0776052474975586,-1.342257335782051,21.0,0.0,2.639651298522949,0.2485513687133789,-1.342257335782051,16.75,0.0,2.488374710083008,0.30684471130371094,-1.342257335782051,13.25,0.0,3.220796585083008,-1.3464689254760742,0.0,20.0,0.0,3.3545494079589844,-1.2896060943603516,0.0,20.5,0.0,3.2014846801757812,-0.15628337860107422,0.0,24.75,0.0,2.990841865539551,0.041484832763671875,0.0,26.25,0.0,3.107428550720215,-0.04971027374267578,0.0,27.5,,,,,
0.0,-0.5323356986045837,2.8929316997528076,-1.814067742573264e-39,-0.5579526424407959,-0.8778002858161926,3.564219459591744e-39,-0.455220103263855,-0.47411736845970154,8.529092786214716e-39,0.0,3.268003463745117,-1.3085603713989258,-0.3835020959377289,15.25,0.0,3.0673742294311523,-0.949859619140625,-0.3835020959377289,21.0,0.0,3.119945526123047,-1.0442733764648438,-0.3835020959377289,22.75,0.0,3.200411796569824,-1.0796785354614258,-0.3835020959377289,20.25,0.0,2.920389175415039,-0.6072521209716797,-0.3835020959377289,17.5,0.0,2.471923828125,0.07295608520507812,-1.342257335782051,24.0,0.0,2.5212764739990234,0.042557716369628906,-1.342257335782051,25.25,0.0,2.6378631591796875,-0.05042552947998047,-1.342257335782051,20.0,0.0,2.3910999298095703,0.08368492126464844,-1.342257335782051,16.0,0.0,3.11887264251709,-0.12123584747314453,0.0,26.0,0.0,3.208279609680176,-0.2532005310058594,0.0,20.75,0.0,2.9926300048828125,0.04398822784423828,0.0,26.5,,,,,,,,,,
0.0,-0.6431246399879456,2.7854132652282715,-9.755952012506522e-40,-0.6767783761024475,-1.0237412452697754,4.994785443642449e-39,-0.5009294152259827,-0.6317328214645386,8.899283610624653e-39,0.0,3.183603286743164,-1.5660524368286133,-1.342257335782051,19.0,0.0,3.1675100326538086,-1.3933181762695312,-1.342257335782051,22.0,0.0,3.432154655456543,-1.535654067993164,-0.9587552398443222,12.5,0.0,3.144979476928711,-1.1605024337768555,-1.342257335782051,18.25,0.0,3.7947893142700195,-1.3518333435058594,-0.5752531439065933,12.75,0.0,3.0580759048461914,-0.7499456405639648,-0.3835020959377289,13.25,0.0,2.2859573364257812,-0.48351287841796875,-1.342257335782051,18.0,0.0,2.349257469177246,-0.43702125549316406,-1.342257335782051,21.75,0.0,2.502322196960449,-0.2492666244506836,-1.342257335782051,19.25,0.0,2.7118921279907227,-0.35119056701660156,-1.5340083837509155,18.0,0.0,2.8960704803466797,-0.46384334564208984,-0.3835020959377289,17.0,0.0,3.1943321228027344,-0.5131959915161133,0.0,20.5,0.0,3.1110048294067383,-0.10406970977783203,0.0,23.75,0.0,2.9865503311157227,-0.004291534423828125,0.0,25.25
0.0,-0.7866771221160889,2.6592323780059814,-3.3173639195193557e-40,-0.8659461736679077,-1.1140735149383545,6.02187556086011e-39,-0.6268998384475708,-0.6457963585853577,8.988864417553546e-39,0.0,3.008723258972168,-1.4569759368896484,-0.7670041918754578,13.5,0.0,3.071308135986328,-1.5935897827148438,-0.7670041918754578,15.5,0.0,3.2215118408203125,-1.5664100646972656,-0.19175104796886444,12.75,0.0,2.1761655807495117,-0.6805658340454102,-0.7670041918754578,31.0,0.0,2.1790266036987305,-0.698089599609375,-0.7670041918754578,30.5,0.0,2.2516250610351562,-0.75531005859375,-0.7670041918754578,21.5,0.0,3.1442642211914062,-1.372218132019043,0.0,22.0,0.0,3.1800270080566406,-0.8107423782348633,0.0,20.25,0.0,2.973318099975586,0.03039836883544922,0.0,23.25,0.0,3.0881166458129883,-0.08797645568847656,0.0,21.0,,,,,,,,,,,,,,,,,,,,
0.0,-0.8800275325775146,2.5081310272216797,2.176791047466814e-40,-0.921444296836853,-1.2602875232696533,6.773526451930085e-39,-0.6074056029319763,-0.7484467029571533,8.892079535219559e-39,0.0,2.924323081970215,-1.5757083892822266,-1.72575943171978,14.25,0.0,3.06093692779541,-1.5617609024047852,-1.72575943171978,13.75,0.0,2.213716506958008,-0.9845495223999023,-0.9587552398443222,19.5,0.0,2.104640007019043,-0.6372928619384766,-0.9587552398443222,29.75,0.0,2.1282434463500977,-0.7703304290771484,-0.9587552398443222,26.25,0.0,2.0874738693237305,-0.5661249160766602,-0.9587552398443222,15.5,0.0,3.1113624572753906,-1.1773109436035156,0.0,20.75,0.0,3.1517744064331055,-1.3704299926757812,0.0,22.0,0.0,2.9268264770507812,-0.0826120376586914,0.0,18.0,,,,,,,,,,,,,,,,,,,,,,,,,
0.0,-1.070912480354309,2.3394038677215576,6.917551908093389e-40,-1.1558685302734375,-1.4133021831512451,7.306597203340817e-39,-0.7579721212387085,-0.8292599320411682,8.660615857479315e-39,0.0,1.8589496612548828,-1.2073516845703125,0.19175104796886444,24.25,0.0,2.062082290649414,-1.1487007141113281,0.19175104796886444,23.0,0.0,2.3632049560546875,-1.3196468353271484,-0.19175104796886444,15.25,0.0,2.534151077270508,-1.4412403106689453,-2.4927636235952377,13.5,0.0,2.6628971099853516,-1.5070438385009766,-2.4927636235952377,14.5,0.0,2.2516250610351562,-1.154780387878418,-1.5340083837509155,21.5,0.0,3.2351016998291016,-1.4694929122924805,0.0,18.75,0.0,3.113865852355957,-1.181960105895996,0.0,20.0,0.0,3.0705928802490234,-0.6380081176757812,0.0,16.75,,,,,,,,,,,,,,,,,,,,,,,,,
0.0,-1.2291772365570068,2.1565771102905273,1.1494346835409317e-39,-1.3201042413711548,-1.538322925567627,7.722934187479435e-39,-0.850214421749115,-0.8474074006080627,8.369752539134805e-39,0.0,1.8264055252075195,-1.2227296829223633,-0.19175104796886444,23.75,0.0,1.942276954650879,-1.280665397644043,-0.19175104796886444,23.0,0.0,1.7673969268798828,-1.0367631912231445,-0.19175104796886444,17.0,0.0,2.101778984069824,-1.257777214050293,-0.5752531439065933,15.5,0.0,1.704096794128418,-0.9087324142456055,-0.3835020959377289,13.25,0.0,3.1113624572753906,-1.6973018646240234,0.0,15.25,0.0,3.1049251556396484,-1.1587142944335938,0.0,19.75,,,,,,,,,,,,,,,,,,,,,,,,,,,,,,,,,,,
0.0,-1.3821446895599365,1.9894055128097534,1.6071365970479538e-39,-1.4578804969787598,-1.6163727045059204,8.057974841210248e-39,-0.9167805910110474,-0.817530632019043,8.046023166608022e-39,0.0,1.7130374908447266,-1.2023448944091797,0.19175104796886444,18.25,0.0,1.7666816711425781,-1.271367073059082,0.19175104796886444,26.75,0.0,1.8671751022338867,-1.2824535369873047,0.19175104796886444,23.75,0.0,2.063870429992676,-1.2459754943847656,-0.5752531439065933,14.25,0.0,3.2297372817993164,-1.4598369598388672,0.0,14.5,0.0,3.110647201538086,-1.1365413665771484,0.0,19.0,,,,,,,,,,,,,,,,,,,,,,,,,,,,,,,,,,,,,,,,
0.0,-1.4386829137802124,1.8868403434753418,1.9707202991985995e-39,-1.394051432609558,-1.5677225589752197,8.188676751574752e-39,-0.7938541769981384,-0.6783042550086975,7.609270665142656e-39,0.0,1.7788410186767578,-1.074671745300293,0.19175104796886444,14.75,0.0,1.8199682235717773,-1.1279582977294922,0.19175104796886444,20.0,0.0,2.2040605545043945,-1.2112855911254883,-0.5752531439065933,14.25,0.0,2.1175146102905273,-0.9423494338989258,-0.5752531439065933,15.5,0.0,3.231167793273926,-1.4319419860839844,0.0,13.25,,,,,,,,,,,,,,,,,,,,,,,,,,,,,,,,,,,,,,,,,,,,,
0.0,-1.4754427671432495,1.8207850456237793,2.151643345226041e-39,-1.3184341192245483,-1.4331011772155762,8.022869512081983e-39,-0.6923755407333374,-0.45444220304489136,7.016969830241842e-39,0.0,1.7341375350952148,-1.077890396118164,0.19175104796886444,13.5,0.0,1.7741918563842773,-1.1333227157592773,0.19175104796886444,22.5,0.0,1.820683479309082,-1.1218786239624023,0.19175104796886444,28.75,0.0,1.9598007202148438,-1.0492801666259766,0.19175104796886444,22.75,0.0,2.158641815185547,-1.0024309158325195,0.19175104796886444,12.75,0.0,3.2047033309936523,-1.4995336532592773,0.0,14.0,0.0,1.9862651824951172,-0.8854866027832031,0.0,28.5,0.0,2.105712890625,-0.8887052536010742,0.0,24.25,0.0,3.1567811965942383,-1.352548599243164,0.0,19.5,,,,,,,,,,,,,,,,,,,,,,,,,
0.0,-0.35299718379974365,3.209437847137451,-1.489440137730848e-41,-0.31987264752388,-0.2340201735496521,-3.151099856727216e-41,-0.3235896825790405,-0.1650824248790741,-2.129973665773722e-42,0.0,3.3288002014160156,-1.672983169555664,-0.19175104796886444,12.75,0.0,3.354191780090332,-1.3539791107177734,-0.19175104796886444,18.0,0.0,3.3788681030273438,-0.8976459503173828,-0.19175104796886444,18.5,0.0,3.074169158935547,-0.2224445343017578,-0.3835020959377289,18.5,0.0,3.1017065048217773,-0.1659393310546875,-0.3835020959377289,22.75,0.0,3.21042537689209,-0.09799003601074219,-0.3835020959377289,18.0,0.0,3.3931732177734375,-1.2756586074829102,0.0,28.0,0.0,3.362417221069336,-1.1597871780395508,0.0,27.0,0.0,3.1728744506835938,-0.11444091796875,0.0,22.75,0.0,3.0841827392578125,-0.060439109802246094,0.0,17.75,0.0,3.2976865768432617,-0.06008148193359375,0.0,23.75,,,,,,,,,,,,,,,
0.0,-0.5246016979217529,3.189703941345215,-1.3208639324725726e-41,-0.557038426399231,-0.2788888216018677,-2.6092177405728094e-41,-0.4783880114555359,-0.2238418012857437,1.1378543530317515e-42,0.0,3.338456153869629,-1.5442371368408203,-0.19175104796886444,13.25,0.0,3.287672996520996,-1.2406110763549805,-0.3835020959377289,24.5,0.0,3.2798051834106445,-1.3926029205322266,-0.3835020959377289,22.5,0.0,3.271937370300293,-0.9119510650634766,-0.3835020959377289,20.25,0.0,3.179311752319336,-0.331878662109375,-0.3835020959377289,15.75,0.0,3.009796142578125,0.11837482452392578,-0.5752531439065933,12.25,0.0,3.2976865768432617,-0.47707557678222656,0.0,23.5,0.0,3.0738115310668945,-0.034332275390625,0.0,18.25,0.0,3.1539201736450195,-0.08296966552734375,0.0,23.25,,,,,,,,,,,,,,,,,,,,,,,,,
0.0,-0.5257657170295715,3.1393909454345703,-1.0658276119654559e-41,-0.5069222450256348,-0.3632153272628784,-1.9967101818164318e-41,-0.39205944538116455,-0.3097894787788391,4.650909603094068e-42,0.0,3.0927658081054688,-1.1887550354003906,-0.3835020959377289,16.75,0.0,3.217935562133789,-1.316070556640625,-0.3835020959377289,20.0,0.0,3.254055976867676,-1.431584358215332,-0.19175104796886444,14.0,0.0,3.1796693801879883,-0.11837482452392578,-0.3835020959377289,17.25,0.0,2.936840057373047,0.013589859008789062,-0.5752531439065933,19.0,0.0,2.978682518005371,-0.03719329833984375,-0.5752531439065933,25.75,0.0,3.0155181884765625,0.04756450653076172,-0.5752531439065933,24.25,0.0,3.278017044067383,-0.5925893783569336,0.0,24.5,0.0,3.108859062194824,-0.10657310485839844,0.0,24.75,0.0,2.941131591796875,0.0286102294921875,0.0,16.25,0.0,3.0126571655273438,-0.026464462280273438,0.0,23.75,,,,,,,,,,,,,,,
0.0,-0.5087068676948547,3.0826423168182373,-9.639532136090417e-42,-0.42996469140052795,-0.4363864064216614,-1.597059859790994e-41,-0.2928125560283661,-0.3643799424171448,6.74024561340237e-42,0.0,2.9654502868652344,-2.1239519119262695,-0.5752531439065933,13.5,0.0,3.10671329498291,-1.6225576400756836,-0.5752531439065933,13.25,0.0,3.142118453979492,-0.5532503128051758,-0.3835020959377289,13.75,0.0,2.9886960983276367,-0.13124942779541016,-0.5752531439065933,20.75,0.0,2.878546714782715,0.01430511474609375,-0.5752531439065933,21.5,0.0,2.9186010360717773,-0.0654458999633789,-0.5752531439065933,24.5,0.0,3.276944160461426,-0.5900859832763672,0.0,23.25,0.0,2.933621406555176,-0.003933906555175781,0.0,16.5,0.0,3.004789352416992,-0.03647804260253906,0.0,23.5,0.0,3.0874013900756836,-0.09083747863769531,0.0,24.25,,,,,,,,,,,,,,,,,,,,
