tid,posx,posy,posz,velx,vely,velz,accx,accy,accz,pointx1,pointy1,pointz1,doppler1,snr1,pointx2,pointy2,pointz2,doppler2,snr2,pointx3,pointy3,pointz3,doppler3,snr3,pointx4,pointy4,pointz4,doppler4,snr4,pointx5,pointy5,pointz5,doppler5,snr5,pointx6,pointy6,pointz6,doppler6,snr6,pointx7,pointy7,pointz7,doppler7,snr7,pointx8,pointy8,pointz8,doppler8,snr8,pointx9,pointy9,pointz9,doppler9,snr9,pointx10,pointy10,pointz10,doppler10,snr10,pointx11,pointy11,pointz11,doppler11,snr11,pointx12,pointy12,pointz12,doppler12,snr12,pointx13,pointy13,pointz13,doppler13,snr13,pointx14,pointy14,pointz14,doppler14,snr14,pointx15,pointy15,pointz15,doppler15,snr15
0.0,0.005956956185400486,3.0280356407165527,-0.4943588078022003,0.031177567318081856,-0.28904515504837036,-0.4027913808822632,0.04115552827715874,-0.21758341789245605,-0.26111751794815063,0.0,3.299832344055176,-1.1379718780517578,-0.19175104796886444,12.25,0.0,3.1517744064331055,-0.811457633972168,-0.19175104796886444,26.5,0.0,3.22115421295166,-0.9126663208007812,-0.19175104796886444,21.0,0.0,3.0094385147094727,-0.2281665802001953,0.19175104796886444,27.5,0.0,2.8585195541381836,0.07402896881103516,-0.3835020959377289,31.0,0.0,2.891063690185547,0.011444091796875,-0.3835020959377289,32.5,0.0,2.785921096801758,0.11408329010009766,-0.3835020959377289,21.0,0.0,3.1900405883789062,-1.0013580322265625,0.0,25.0,,,,,,,,,,,,,,,,,,,,,,,,,,,,,,,,,,,
0.0,0.006131356582045555,2.9976344108581543,-0.5381988883018494,0.030442098155617714,-0.3569716215133667,-0.4210240840911865,0.03820688650012016,-0.3059767782688141,-0.24405847489833832,0.0,3.2161474227905273,-1.4923810958862305,-0.19175104796886444,18.0,0.0,3.2504796981811523,-1.106858253479004,-0.19175104796886444,21.0,0.0,3.220796585083008,-0.9140968322753906,-0.5752531439065933,22.25,0.0,3.1031370162963867,-0.628352165222168,-0.3835020959377289,17.5,0.0,2.822399139404297,0.0833272933959961,-0.5752531439065933,19.0,0.0,2.8978586196899414,0.0010728836059570312,-0.5752531439065933,19.25,0.0,2.72369384765625,0.09119510650634766,-0.5752531439065933,12.25,0.0,3.186464309692383,-1.0192394256591797,0.0,24.25,,,,,,,,,,,,,,,,,,,,,,,,,,,,,,,,,,,
0.0,0.006626239977777004,2.9578092098236084,-0.633168637752533,0.030138587579131126,-0.4364175498485565,-0.5243312120437622,0.035759493708610535,-0.3882148861885071,-0.30050206184387207,0.0,3.209710121154785,-1.944422721862793,-0.7670041918754578,13.75,0.0,3.18753719329834,-1.6704797744750977,-0.19175104796886444,15.75,0.0,3.232598304748535,-1.0596513748168945,-0.5752531439065933,18.25,0.0,3.149271011352539,-0.8904933929443359,-0.7670041918754578,22.5,0.0,2.796649932861328,-0.4838705062866211,-0.3835020959377289,16.0,0.0,3.0916929244995117,-0.6165504455566406,-0.3835020959377289,22.25,0.0,2.9708147048950195,-0.4252195358276367,-0.3835020959377289,19.25,0.0,3.1632184982299805,-0.9970664978027344,0.0,24.75,0.0,2.765178680419922,0.08761882781982422,0.0,17.75,0.0,2.8606653213500977,0.06330013275146484,0.0,27.0,0.0,2.764463424682617,0.08761882781982422,0.0,18.0,,,,,,,,,,,,,,,,,,,,
0.0,0.0065622637048363686,2.9044857025146484,-0.779362678527832,0.028876911848783493,-0.5584575533866882,-0.6945053339004517,0.032933272421360016,-0.5244527459144592,-0.39996862411499023,0.0,3.16464900970459,-1.7802715301513672,-0.19175104796886444,16.25,0.0,3.2798051834106445,-1.7963647842407227,-0.9587552398443222,12.75,0.0,3.0115842819213867,-0.9891986846923828,-0.7670041918754578,23.25,0.0,3.057718276977539,-1.0743141174316406,-0.7670041918754578,22.75,0.0,3.200054168701172,-1.1315345764160156,-0.19175104796886444,16.0,0.0,2.9218196868896484,-0.7445812225341797,-0.7670041918754578,18.25,0.0,2.7855634689331055,-0.3769397735595703,-0.19175104796886444,16.0,0.0,3.1464099884033203,-1.0524988174438477,0.0,24.75,0.0,2.7533769607543945,0.07832050323486328,0.0,17.5,0.0,2.859950065612793,0.06008148193359375,0.0,26.75,,,,,,,,,,,,,,,,,,,,,,,,,
0.0,0.006399922538548708,2.845768928527832,-0.8715159296989441,0.02759416215121746,-0.6563587188720703,-0.7518621683120728,0.030316824093461037,-0.6098645329475403,-0.3974151015281677,0.0,3.180384635925293,-1.729130744934082,-0.7670041918754578,15.0,0.0,3.156423568725586,-2.0134449005126953,-0.7670041918754578,12.25,0.0,3.0934810638427734,-1.5510320663452148,-1.1505062878131866,15.0,0.0,2.886056900024414,-0.9584426879882812,-0.3835020959377289,20.25,0.0,3.0666589736938477,-1.0453462600708008,-0.19175104796886444,16.5,0.0,2.7909278869628906,-0.6501674652099609,-0.5752531439065933,23.5,0.0,2.6911497116088867,-0.4878044128417969,-0.3835020959377289,19.0,0.0,2.735137939453125,-0.5364418029785156,-0.3835020959377289,25.0,0.0,3.035902976989746,-0.19919872283935547,0.0,24.5,0.0,2.9085874557495117,0.019669532775878906,0.0,28.5,,,,,,,,,,,,,,,,,,,,,,,,,
0.0,0.006646508350968361,2.7676925659179688,-0.9106443524360657,0.026886355131864548,-0.7646231651306152,-0.7014405727386475,0.02818421833217144,-0.7011377215385437,-0.2965661287307739,0.0,2.9425621032714844,-1.7359256744384766,-1.342257335782051,15.25,0.0,2.9114484786987305,-1.4344453811645508,-0.5752531439065933,15.5,0.0,2.8553009033203125,-1.1372566223144531,-0.5752531439065933,19.5,0.0,2.763032913208008,-0.8307695388793945,-0.5752531439065933,20.75,0.0,2.667546272277832,-0.607609748840332,-0.7670041918754578,23.75,0.0,2.599954605102539,-0.5528926849365234,-0.7670041918754578,21.75,0.0,2.5141239166259766,-0.35512447357177734,-0.3835020959377289,14.75,0.0,3.105640411376953,-1.033186912536621,0.0,22.5,0.0,3.215789794921875,-1.1254549026489258,0.0,19.0,0.0,3.02731990814209,-0.49817562103271484,0.0,24.0,0.0,2.734065055847168,-0.03719329833984375,0.0,18.5,0.0,2.8438568115234375,-0.0021457672119140625,0.0,26.5,0.0,2.898573875427246,-0.007867813110351562,0.0,27.75,,,,,,,,,,
0.0,0.0065801250748336315,2.6749095916748047,-0.9657801985740662,0.0257820263504982,-0.8600218296051025,-0.6945689916610718,0.02599075250327587,-0.739986777305603,-0.25623756647109985,0.0,2.9325485229492188,-1.365065574645996,-0.3835020959377289,16.5,0.0,3.0412673950195312,-1.486659049987793,-0.3835020959377289,13.0,0.0,2.410411834716797,-0.914454460144043,-0.7670041918754578,24.25,0.0,2.516627311706543,-0.9877681732177734,-0.19175104796886444,24.0,0.0,2.8467178344726562,-1.1816024780273438,-0.3835020959377289,17.0,0.0,2.705812454223633,-0.972747802734375,-1.342257335782051,19.5,0.0,2.3660659790039062,-0.5757808685302734,-0.7670041918754578,23.0,0.0,2.303481101989746,-0.4799365997314453,-0.7670041918754578,18.5,0.0,3.191828727722168,-1.1758804321289062,0.0,19.0,0.0,3.030538558959961,-0.49674510955810547,0.0,21.0,0.0,2.64894962310791,-0.3018379211425781,0.0,19.5,0.0,2.8345584869384766,-0.011086463928222656,0.0,26.25,0.0,2.8928518295288086,-0.05507469177246094,0.0,27.5,,,,,,,,,,
0.0,0.0075205592438578606,2.573350667953491,-1.071290135383606,0.02611549384891987,-0.9078882932662964,-0.8112150430679321,0.02477698028087616,-0.6617910861968994,-0.36514195799827576,0.0,2.0273923873901367,-1.077890396118164,-0.9587552398443222,19.75,0.0,2.5359392166137695,-1.215219497680664,0.19175104796886444,16.25,0.0,2.2745132446289062,-0.8987188339233398,-0.5752531439065933,23.25,0.0,2.4025440216064453,-0.9251832962036133,0.19175104796886444,25.25,0.0,2.4633407592773438,-1.066446304321289,0.19175104796886444,23.75,0.0,3.191828727722168,-1.1644363403320312,0.0,18.75,,,,,,,,,,,,,,,,,,,,,,,,,,,,,,,,,,,,,,,,,,,,,
0.0,0.006948848720639944,2.4731671810150146,-1.1428864002227783,0.02421344816684723,-1.0126392841339111,-0.8043825030326843,0.02233246900141239,-0.7354573011398315,-0.30281490087509155,0.0,2.3342370986938477,-1.3740062713623047,-1.342257335782051,18.5,0.0,2.501249313354492,-1.4448165893554688,-1.342257335782051,14.0,0.0,2.228379249572754,-1.1565685272216797,-0.7670041918754578,19.25,0.0,2.8002262115478516,-1.3808012008666992,-1.72575943171978,14.25,0.0,3.002285957336426,-1.3729333877563477,0.19175104796886444,15.75,0.0,3.083467483520508,-1.468062400817871,0.19175104796886444,15.5,0.0,2.170085906982422,-0.8035898208618164,-0.7670041918754578,20.25,0.0,2.2115707397460938,-0.8221864700317383,-0.7670041918754578,22.75,,,,,,,,,,,,,,,,,,,,,,,,,,,,,,,,,,,
0.0,0.006863550748676062,2.376742362976074,-1.187601923942566,0.023054303601384163,-1.078203558921814,-0.7569785714149475,0.020447630435228348,-0.7422371506690979,-0.22273986041545868,0.0,2.267003059387207,-1.0571479797363281,-0.7670041918754578,20.75,0.0,2.3757219314575195,-1.247406005859375,-0.19175104796886444,17.25,0.0,2.5742053985595703,-1.365065574645996,-1.1505062878131866,14.0,0.0,2.7326345443725586,-1.4355182647705078,-1.1505062878131866,15.25,0.0,2.865314483642578,-1.4476776123046875,-0.3835020959377289,12.5,0.0,2.121090888977051,-0.8718967437744141,-0.7670041918754578,21.5,0.0,2.1883249282836914,-0.9087324142456055,-0.7670041918754578,22.75,,,,,,,,,,,,,,,,,,,,,,,,,,,,,,,,,,,,,,,,
0.0,-0.00012622939539141953,3.129497528076172,-0.47235816717147827,-0.0003601665375754237,-0.2717269957065582,-0.1858755350112915,-0.00021800042304676026,-0.1450006067752838,-0.041881635785102844,0.0,3.345608711242676,-1.795649528503418,-0.19175104796886444,13.75,0.0,3.3652782440185547,-1.3643503189086914,-0.19175104796886444,14.25,0.0,3.296971321105957,-1.0528564453125,-0.3835020959377289,16.25,0.0,3.188610076904297,-0.5364418029785156,-0.3835020959377289,17.25,0.0,3.048062324523926,-0.10192394256591797,-0.5752531439065933,21.0,0.0,2.8960704803466797,0.05221366882324219,-0.7670041918754578,16.75,0.0,2.9758214950561523,0.0017881393432617188,-0.5752531439065933,22.0,0.0,3.3109188079833984,-1.0013580322265625,0.0,24.75,0.0,3.3878087997436523,-1.1233091354370117,0.0,19.75,0.0,3.51870059967041,-1.2356042861938477,0.0,14.25,,,,,,,,,,,,,,,,,,,,,,,,,
0.0,-0.00012102513574063778,3.097592830657959,-0.5005651712417603,-0.0003303523699287325,-0.3222975730895996,-0.20023134350776672,-0.0001874564914032817,-0.20959672331809998,-0.044174570590257645,0.0,3.32486629486084,-1.8453598022460938,-0.7670041918754578,17.0,0.0,3.452181816101074,-2.0760297775268555,-0.3835020959377289,12.5,0.0,3.361344337463379,-1.3214349746704102,-0.19175104796886444,15.5,0.0,3.234386444091797,-0.8200407028198242,-0.5752531439065933,20.75,0.0,3.3173561096191406,-0.8865594863891602,-0.5752531439065933,19.5,0.0,3.0852556228637695,-0.3898143768310547,-0.19175104796886444,18.25,0.0,2.9296875,-0.1112222671508789,-0.5752531439065933,20.5,0.0,2.844572067260742,0.03612041473388672,-0.3835020959377289,17.75,0.0,3.2422542572021484,-0.45812129974365234,0.0,24.75,,,,,,,,,,,,,,,,,,,,,,,,,,,,,,
0.0,-0.00011586131586227566,3.0620768070220947,-0.5702878832817078,-0.0003010552318301052,-0.3741787075996399,-0.28231456875801086,-0.00015884546155575663,-0.26351824402809143,-0.10363438725471497,0.0,3.231167793273926,-1.547098159790039,-0.5752531439065933,13.0,0.0,3.117084503173828,-0.7474422454833984,-0.3835020959377289,25.5,0.0,3.1474828720092773,-0.7760524749755859,-0.3835020959377289,26.0,0.0,3.2268762588500977,-0.8447170257568359,-0.3835020959377289,18.0,0.0,3.034830093383789,-0.41556358337402344,-0.3835020959377289,17.25,0.0,2.803802490234375,-0.032901763916015625,-0.5752531439065933,14.0,0.0,3.291964530944824,-0.9938478469848633,0.0,23.75,0.0,3.2379627227783203,-0.5478858947753906,0.0,24.75,0.0,3.1310319900512695,-0.2353191375732422,0.0,25.25,,,,,,,,,,,,,,,,,,,,,,,,,,,,,,
0.0,-9.779674292076379e-05,2.999495506286621,-0.7694194912910461,-0.0002555263927206397,-0.516748309135437,-0.5627695322036743,-0.00012150211114203557,-0.445033997297287,-0.3119429349899292,0.0,3.237605094909668,-1.622915267944336,-0.5752531439065933,17.5,0.0,3.406047821044922,-1.6200542449951172,-0.19175104796886444,15.5,0.0,3.15248966217041,-1.3979673385620117,-0.3835020959377289,17.5,0.0,3.6835670471191406,-1.6304254531860352,-0.19175104796886444,12.25,0.0,2.834200859069824,-0.8858442306518555,-0.9587552398443222,22.25,0.0,3.1099319458007812,-0.9713172912597656,-0.3835020959377289,21.25,0.0,2.7376413345336914,-0.7921457290649414,-1.1505062878131866,19.25,0.0,2.9861927032470703,-0.857234001159668,-0.3835020959377289,22.75,0.0,2.6786327362060547,-0.46241283416748047,-1.1505062878131866,12.25,0.0,3.276228904724121,-1.0353326797485352,0.0,22.25,0.0,3.209710121154785,-0.5661249160766602,0.0,25.25,0.0,3.074169158935547,-0.4831552505493164,0.0,27.0,,,,,,,,,,,,,,,
0.0,-8.914888894651085e-05,2.9002628326416016,-0.8443096280097961,-0.0002231817488791421,-0.6828691363334656,-0.5967776775360107,-9.385570592712611e-05,-0.6233203411102295,-0.28722840547561646,0.0,3.093838691711426,-1.8045902252197266,-1.1505062878131866,12.75,0.0,2.991199493408203,-1.6061067581176758,-1.1505062878131866,16.25,0.0,2.593874931335449,-0.7807016372680664,-0.9587552398443222,25.75,0.0,2.7272701263427734,-0.9098052978515625,-0.9587552398443222,21.75,0.0,2.9529333114624023,-0.9537935256958008,-0.3835020959377289,21.25,0.0,3.0437707901000977,-1.1286735534667969,-0.19175104796886444,19.0,0.0,2.5817155838012695,-0.6000995635986328,-0.9587552398443222,25.25,0.0,2.54666805267334,-0.44023990631103516,-0.3835020959377289,16.75,0.0,3.278017044067383,-1.0303258895874023,0.0,20.75,0.0,3.0634403228759766,-0.5346536636352539,0.0,26.5,0.0,3.1954050064086914,-0.6880760192871094,0.0,23.5,,,,,,,,,,,,,,,,,,,,
0.0,-8.059178071562201e-05,2.7974233627319336,-0.8950209617614746,-0.00019165949197486043,-0.8570647835731506,-0.5716382265090942,-6.795003719162196e-05,-0.8077458143234253,-0.2052326798439026,0.0,3.01516056060791,-1.6933679580688477,-0.9587552398443222,15.5,0.0,2.8982162475585938,-1.5131235122680664,-1.5340083837509155,13.75,0.0,3.2225847244262695,-1.5785694122314453,-1.1505062878131866,13.25,0.0,2.9064416885375977,-0.8965730667114258,-0.9587552398443222,18.75,0.0,2.461552619934082,-0.6426572799682617,-0.9587552398443222,18.5,0.0,2.524852752685547,-0.640869140625,-0.9587552398443222,23.0,0.0,2.6189088821411133,-0.7492303848266602,-0.7670041918754578,22.25,0.0,2.783060073852539,-0.790715217590332,-0.7670041918754578,21.5,0.0,3.2629966735839844,-1.032114028930664,0.0,20.5,0.0,3.051638603210449,-0.5650520324707031,0.0,27.25,0.0,3.179311752319336,-0.6794929504394531,0.0,22.25,,,,,,,,,,,,,,,,,,,,
0.0,-7.256898970808834e-05,2.6799044609069824,-1.0207141637802124,-0.00016253002104349434,-0.9738273620605469,-0.7223113179206848,-4.548149445326999e-05,-0.8287063241004944,-0.3261152505874634,0.0,2.009868621826172,-1.2009143829345703,-0.5752531439065933,14.5,0.0,2.830624580383301,-1.6268491744995117,-1.5340083837509155,13.25,0.0,2.970457077026367,-1.6955137252807617,0.19175104796886444,13.75,0.0,2.3310184478759766,-0.8815526962280273,-0.5752531439065933,22.75,0.0,2.7229785919189453,-1.0328292846679688,0.19175104796886444,18.75,0.0,2.784848213195801,-1.259922981262207,-1.5340083837509155,14.75,0.0,2.3800134658813477,-0.881195068359375,-0.5752531439065933,24.75,0.0,2.544522285461426,-0.8693933486938477,-0.5752531439065933,20.0,0.0,1.7684698104858398,-1.4008283615112305,0.0,23.25,0.0,2.0635128021240234,-1.2137889862060547,0.0,23.25,0.0,3.252267837524414,-1.0925531387329102,0.0,19.25,0.0,3.0341148376464844,-0.6022453308105469,0.0,21.75,0.0,3.1785964965820312,-0.6526708602905273,0.0,19.5,,,,,,,,,,
0.0,-7.194680802058429e-05,2.5544261932373047,-1.0962835550308228,-0.00014417462807614356,-1.0965421199798584,-0.7547515034675598,-3.081294926232658e-05,-0.8751031160354614,-0.32044896483421326,0.0,1.8714666366577148,-1.245260238647461,-0.5752531439065933,12.75,0.0,2.4733543395996094,-1.1941194534301758,-1.342257335782051,20.25,0.0,2.572774887084961,-1.2706518173217773,-0.7670041918754578,17.25,0.0,2.4121999740600586,-0.9430646896362305,-0.5752531439065933,19.75,0.0,2.34067440032959,-0.779271125793457,-0.5752531439065933,18.0,0.0,1.7806291580200195,-1.3850927352905273,0.0,23.75,0.0,2.0742416381835938,-1.1941194534301758,0.0,23.75,0.0,3.1728744506835938,-1.307845115661621,0.0,17.75,0.0,3.0183792114257812,-0.6211996078491211,0.0,21.25,0.0,3.1489133834838867,-0.6844997406005859,0.0,18.5,,,,,,,,,,,,,,,,,,,,,,,,,
0.0,-6.550233229063451e-05,2.403212547302246,-1.2343147993087769,-0.00011877182259922847,-1.2548418045043945,-0.8968754410743713,-1.2469175999285653e-05,-0.9508727192878723,-0.4137860834598541,0.0,1.7058849334716797,-1.429438591003418,0.19175104796886444,15.75,0.0,2.2301673889160156,-1.2917518615722656,-0.5752531439065933,21.25,0.0,2.300262451171875,-1.385807991027832,-1.1505062878131866,17.75,0.0,2.5473833084106445,-1.410841941833496,-1.342257335782051,13.25,0.0,2.201557159423828,-1.100778579711914,-0.3835020959377289,16.75,0.0,2.7108192443847656,-1.4362335205078125,-1.342257335782051,13.75,0.0,1.765608787536621,-1.385807991027832,0.0,23.5,0.0,2.100348472595215,-1.1554956436157227,0.0,23.5,0.0,2.4089813232421875,-0.9133815765380859,0.0,23.75,0.0,3.176450729370117,-1.2878179550170898,0.0,17.0,0.0,2.9997825622558594,-0.7113218307495117,0.0,20.25,0.0,3.1478404998779297,-0.732421875,0.0,18.5,,,,,,,,,,,,,,,
0.0,-6.311263859970495e-05,2.2855172157287598,-1.2816145420074463,-0.00010079462663270533,-1.3072538375854492,-0.8692421317100525,-2.68752955889795e-07,-0.893105149269104,-0.3642357587814331,0.0,2.2430419921875,-1.349329948425293,-0.19175104796886444,19.75,0.0,2.2351741790771484,-1.0585784912109375,-0.5752531439065933,25.5,0.0,2.150416374206543,-0.9219646453857422,-0.7670041918754578,24.0,0.0,2.1904706954956055,-0.9673833847045898,-0.7670041918754578,27.5,0.0,1.8764734268188477,-1.2545585632324219,0.0,24.5,0.0,2.097487449645996,-1.1386871337890625,0.0,25.0,0.0,3.006577491760254,-1.6189813613891602,0.0,16.75,0.0,3.078460693359375,-0.9548664093017578,0.0,18.75,0.0,2.995133399963379,-0.7184743881225586,0.0,21.0,,,,,,,,,,,,,,,,,,,,,,,,,,,,,,
0.0,8.253957413384416e-13,3.059260129928589,-0.4223349392414093,5.143069130297828e-12,-0.27716606855392456,-0.11662831902503967,2.083099968561153e-12,-0.3089701533317566,-0.17382819950580597,0.0,3.4285783767700195,-1.4458894729614258,-0.9587552398443222,14.5,0.0,3.298044204711914,-0.983119010925293,-0.3835020959377289,24.0,0.0,3.3888816833496094,-1.0764598846435547,-0.3835020959377289,20.0,0.0,3.208279609680176,-0.8858442306518555,-0.3835020959377289,24.5,0.0,3.0863285064697266,-0.49102306365966797,-0.3835020959377289,21.75,0.0,2.9032230377197266,0.04184246063232422,-0.3835020959377289,18.5,0.0,2.9522180557250977,-0.0007152557373046875,-0.3835020959377289,22.75,0.0,3.5905838012695312,-1.166224479675293,0.0,13.75,,,,,,,,,,,,,,,,,,,,,,,,,,,,,,,,,,,
0.0,9.96122021673651e-13,3.0196304321289062,-0.4307332932949066,4.90337501504734e-12,-0.3661409914493561,-0.11870346963405609,1.8043825981972628e-12,-0.41120266914367676,-0.15223273634910583,0.0,3.1070709228515625,-2.179741859436035,-1.1505062878131866,16.25,0.0,3.0519962310791016,-1.8432140350341797,-0.7670041918754578,17.25,0.0,3.4074783325195312,-2.1486282348632812,-1.1505062878131866,13.5,0.0,3.197193145751953,-1.0120868682861328,-0.5752531439065933,23.75,0.0,3.148198127746582,-0.7606744766235352,0.19175104796886444,24.25,0.0,3.195047378540039,-0.8622407913208008,-0.7670041918754578,28.75,0.0,2.7923583984375,0.08475780487060547,-0.7670041918754578,19.5,0.0,2.9529333114624023,-0.008940696716308594,-0.7670041918754578,19.75,0.0,2.7022361755371094,0.10907649993896484,-0.7670041918754578,15.25,0.0,3.4192800521850586,-1.604318618774414,0.0,14.0,0.0,3.2862424850463867,-1.2545585632324219,0.0,17.75,0.0,3.679990768432617,-1.6382932662963867,0.0,12.75,0.0,3.24404239654541,-0.9187459945678711,0.0,27.75,,,,,,,,,,
0.0,1.0544980687254846e-12,2.973102331161499,-0.5073366165161133,4.513662013594377e-12,-0.4891762435436249,-0.2309778332710266,1.4502921433234839e-12,-0.5633954405784607,-0.22230559587478638,0.0,3.167867660522461,-2.0231008529663086,-1.5340083837509155,13.0,0.0,3.268003463745117,-1.383662223815918,-0.19175104796886444,16.25,0.0,3.197193145751953,-1.100778579711914,-0.9587552398443222,21.0,0.0,3.1009912490844727,-0.7277727127075195,-0.9587552398443222,25.0,0.0,3.1392574310302734,-0.916600227355957,-0.9587552398443222,25.25,0.0,2.991199493408203,-0.3390312194824219,-0.5752531439065933,20.25,0.0,2.818465232849121,-0.19168853759765625,-0.5752531439065933,18.25,0.0,2.676844596862793,-0.06723403930664062,-0.3835020959377289,13.5,0.0,3.369927406311035,-1.6493797302246094,0.0,14.25,0.0,3.2951831817626953,-1.2398958206176758,0.0,18.5,0.0,3.2454729080200195,-0.9180307388305664,0.0,27.25,,,,,,,,,,,,,,,,,,,,
0.0,1.1464191141535851e-12,2.917902708053589,-0.6150819659233093,4.170139927817118e-12,-0.55721116065979,-0.39923834800720215,1.1336841838557876e-12,-0.5773015022277832,-0.34830355644226074,0.0,3.153562545776367,-1.810312271118164,-1.1505062878131866,15.5,0.0,3.2361745834350586,-1.9479990005493164,-1.1505062878131866,14.5,0.0,3.1260251998901367,-1.3782978057861328,-0.5752531439065933,15.5,0.0,2.8628110885620117,-0.8550882339477539,-0.3835020959377289,21.25,0.0,3.0798912048339844,-0.9484291076660156,-0.3835020959377289,18.75,0.0,3.004789352416992,-0.8068084716796875,-0.3835020959377289,23.0,0.0,2.603888511657715,-0.4595518112182617,-0.7670041918754578,17.0,0.0,2.7265548706054688,-0.6011724472045898,-0.3835020959377289,18.75,0.0,3.2858848571777344,-1.3142824172973633,0.0,18.25,0.0,3.255128860473633,-0.8919239044189453,0.0,25.5,0.0,2.8967857360839844,-0.04971027374267578,0.0,22.0,,,,,,,,,,,,,,,,,,,,
0.0,1.1897208478800492e-12,2.8429272174835205,-0.6414830684661865,3.765800171695588e-12,-0.6448073983192444,-0.404971182346344,7.813372344955827e-13,-0.6161175966262817,-0.31989794969558716,0.0,2.8045177459716797,-0.7213354110717773,-0.3835020959377289,18.0,0.0,3.0269622802734375,-0.7306337356567383,-0.5752531439065933,20.0,0.0,3.0913352966308594,-0.857234001159668,-0.5752531439065933,14.25,0.0,2.5262832641601562,-0.4305839538574219,-0.3835020959377289,15.5,0.0,2.5931596755981445,-0.48029422760009766,-0.7670041918754578,23.0,0.0,2.624630928039551,-0.5854368209838867,-0.7670041918754578,22.75,0.0,3.2958984375,-1.2792348861694336,0.0,18.25,0.0,3.258347511291504,-0.8772611618041992,0.0,24.25,0.0,2.8510093688964844,-0.2346038818359375,0.0,23.5,,,,,,,,,,,,,,,,,,,,,,,,,,,,,,
0.0,1.140477903088799e-12,2.72593092918396,-0.8085286617279053,3.2505617121592056e-12,-0.8090251088142395,-0.656271755695343,3.793659180198472e-13,-0.741335928440094,-0.5031515955924988,0.0,2.8771162033081055,-1.6018152236938477,-1.9175104796886444,14.0,0.0,3.0040740966796875,-1.6050338745117188,-0.3835020959377289,12.75,0.0,2.18045711517334,-0.9148120880126953,-0.3835020959377289,13.5,0.0,2.6646852493286133,-1.099705696105957,-0.7670041918754578,15.75,0.0,2.314925193786621,-0.8386373519897461,-0.3835020959377289,19.75,0.0,2.4290084838867188,-0.7874965667724609,-0.5752531439065933,20.75,0.0,2.5627613067626953,-0.8200407028198242,-0.5752531439065933,18.75,0.0,3.303408622741699,-1.210927963256836,0.0,18.5,0.0,3.1911134719848633,-0.8379220962524414,0.0,26.25,0.0,3.243684768676758,-0.9294748306274414,0.0,24.75,,,,,,,,,,,,,,,,,,,,,,,,,
0.0,1.050296243206017e-12,2.6208887100219727,-1.0499470233917236,2.7177455164811848e-12,-0.8748002052307129,-1.0551291704177856,4.150298811220199e-15,-0.6689391136169434,-0.8392956256866455,0.0,1.9115209579467773,-1.234889030456543,-0.19175104796886444,19.5,0.0,2.737283706665039,-1.4841556549072266,0.19175104796886444,17.0,0.0,2.227306365966797,-1.0510683059692383,-0.5752531439065933,23.5,0.0,2.324223518371582,-1.1061429977416992,-0.5752531439065933,26.25,0.0,2.4340152740478516,-1.1304616928100586,0.7670041918754578,23.75,0.0,2.9343366622924805,-1.4165639877319336,0.19175104796886444,16.75,0.0,3.057718276977539,-1.451253890991211,0.19175104796886444,14.5,0.0,2.6482343673706055,-1.1376142501831055,-0.9587552398443222,16.5,0.0,2.0030736923217773,-1.1894702911376953,0.0,16.5,0.0,3.2536983489990234,-1.3707876205444336,0.0,17.5,0.0,3.22115421295166,-0.9695291519165039,0.0,23.75,0.0,3.1642913818359375,-0.8908510208129883,0.0,26.25,,,,,,,,,,,,,,,
0.0,9.834681896983555e-13,2.503068447113037,-1.1212302446365356,2.230609360415192e-12,-1.0258502960205078,-1.0267685651779175,-3.3862653349772676e-13,-0.8111515045166016,-0.6997607946395874,0.0,2.3474693298339844,-1.319289207458496,-0.7670041918754578,20.75,0.0,2.091050148010254,-0.9759664535522461,-0.9587552398443222,17.25,0.0,2.284526824951172,-1.1719465255737305,-0.9587552398443222,21.5,0.0,2.5767087936401367,-1.2316703796386719,-1.1505062878131866,14.75,0.0,2.970099449157715,-1.370072364807129,-0.7670041918754578,12.75,0.0,2.247333526611328,-0.914454460144043,-0.9587552398443222,20.25,0.0,2.8166770935058594,-1.272439956665039,-0.19175104796886444,12.25,0.0,3.2411813735961914,-1.4111995697021484,0.0,17.5,0.0,2.6232004165649414,-0.7935762405395508,0.0,23.25,0.0,3.2258033752441406,-0.9795427322387695,0.0,23.5,0.0,3.175020217895508,-0.8633136749267578,0.0,26.0,,,,,,,,,,,,,,,,,,,,
0.0,9.019867101486834e-13,2.3783607482910156,-1.2605223655700684,1.7649967858773818e-12,-1.140144944190979,-1.159148931503296,-6.349460887622449e-13,-0.8451305031776428,-0.7551982402801514,0.0,1.852869987487793,-1.239180564880371,-0.19175104796886444,21.5,0.0,2.0592212677001953,-1.1991262435913086,-0.7670041918754578,20.5,0.0,2.2248029708862305,-1.257777214050293,-0.3835020959377289,21.5,0.0,2.3578405380249023,-1.3225078582763672,-0.3835020959377289,18.75,0.0,2.5273561477661133,-1.371145248413086,-0.3835020959377289,15.0,0.0,2.7222633361816406,-1.4351606369018555,-0.5752531439065933,13.0,0.0,2.934694290161133,-1.4373064041137695,-0.5752531439065933,13.25,0.0,1.7881393432617188,-1.372218132019043,0.0,22.5,0.0,3.188967704772949,-1.48773193359375,0.0,14.5,0.0,2.5827884674072266,-0.8672475814819336,0.0,22.5,0.0,2.9050111770629883,-0.754237174987793,0.0,19.5,0.0,3.208279609680176,-0.9287595748901367,0.0,24.0,0.0,3.1288862228393555,-0.7013082504272461,0.0,23.25,,,,,,,,,,
0.0,-4.968557202223323e-15,3.1407909393310547,-0.2671211063861847,-3.884303360728036e-15,-0.25518620014190674,-0.057575151324272156,3.730548246076541e-15,-0.22705359756946564,-0.11822237074375153,0.0,3.5011768341064453,-1.9919872283935547,-0.9587552398443222,16.5,0.0,3.3538341522216797,-1.7420053482055664,-0.9587552398443222,19.5,0.0,3.362417221069336,-1.2967586517333984,-0.19175104796886444,21.25,0.0,3.204345703125,-1.0510683059692383,-0.5752531439065933,21.5,0.0,3.325939178466797,-1.0800361633300781,-0.5752531439065933,25.75,0.0,2.924323081970215,0.04863739013671875,-0.3835020959377289,15.25,0.0,3.0019283294677734,-0.06437301635742188,-0.5752531439065933,22.75,0.0,3.0477046966552734,-0.03898143768310547,-0.5752531439065933,22.5,0.0,3.3098459243774414,-2.295970916748047,0.0,13.5,0.0,3.2308101654052734,-1.9505023956298828,0.0,17.5,0.0,3.3756494522094727,-1.201629638671875,0.0,21.0,0.0,3.337740898132324,-0.75531005859375,0.0,25.5,0.0,3.235459327697754,-0.3050565719604492,0.0,27.5,,,,,,,,,,
0.0,-3.912193191065805e-15,3.1211371421813965,-0.3908884525299072,-1.8053859290520762e-15,-0.3199232518672943,-0.2598005533218384,4.773182276675541e-15,-0.32220458984375,-0.27135562896728516,0.0,3.3756494522094727,-2.198338508605957,-0.5752531439065933,17.25,0.0,3.3284425735473633,-1.8328428268432617,-0.5752531439065933,21.25,0.0,3.4046173095703125,-1.2352466583251953,-0.5752531439065933,21.0,0.0,3.1485557556152344,-0.7467269897460938,-0.19175104796886444,15.25,0.0,3.291606903076172,-0.8304119110107422,-0.5752531439065933,23.25,0.0,3.34775447845459,-0.9294748306274414,-0.5752531439065933,23.75,0.0,2.823472023010254,0.08082389831542969,-0.5752531439065933,14.25,0.0,2.9178857803344727,0.03504753112792969,-0.5752531439065933,15.5,0.0,3.33559513092041,-1.398324966430664,0.0,24.0,0.0,3.337740898132324,-0.8600950241088867,0.0,26.5,0.0,3.2501220703125,-0.40662288665771484,0.0,28.0,,,,,,,,,,,,,,,,,,,,
0.0,-3.1701897881721963e-15,3.0786240100860596,-0.44427689909935,-2.3188808068419194e-16,-0.39545702934265137,-0.3249111473560333,5.451961869836668e-15,-0.3965741693973541,-0.2973184585571289,0.0,3.34775447845459,-1.8843412399291992,-0.9587552398443222,19.75,0.0,3.509402275085449,-1.977682113647461,-0.9587552398443222,17.25,0.0,3.2808780670166016,-1.5914440155029297,-0.9587552398443222,17.0,0.0,3.2225847244262695,-0.9859800338745117,-0.7670041918754578,20.75,0.0,3.159642219543457,-0.812530517578125,-0.3835020959377289,27.0,0.0,3.1174421310424805,-0.6619691848754883,-0.3835020959377289,25.25,0.0,3.0012130737304688,-0.13017654418945312,-0.5752531439065933,20.5,0.0,2.8492212295532227,-0.02110004425048828,-0.5752531439065933,18.0,0.0,3.3044815063476562,-1.4952421188354492,0.0,23.25,0.0,3.3277273178100586,-0.9316205978393555,0.0,25.75,,,,,,,,,,,,,,,,,,,,,,,,,
0.0,-2.4749159224291863e-15,3.01649808883667,-0.584685206413269,1.157718703076547e-15,-0.5232786536216736,-0.5251873731613159,5.9821629902034445e-15,-0.5415890216827393,-0.42952948808670044,0.0,3.1349658966064453,-1.8382072448730469,-0.9587552398443222,21.0,0.0,3.177523612976074,-1.937270164489746,-0.9587552398443222,18.0,0.0,3.207564353942871,-1.3189315795898438,-1.1505062878131866,21.0,0.0,2.8045177459716797,-0.7345676422119141,-0.3835020959377289,17.0,0.0,2.881765365600586,-0.7241964340209961,-0.3835020959377289,22.25,0.0,2.99835205078125,-0.8672475814819336,-1.1505062878131866,21.25,0.0,3.177523612976074,-0.8640289306640625,-0.5752531439065933,22.75,,,,,,,,,,,,,,,,,,,,,,,,,,,,,,,,,,,,,,,,
0.0,-1.6272822170570458e-15,2.921475648880005,-0.8014942407608032,2.599685993142113e-15,-0.7576297521591187,-0.8084893226623535,6.516328648279845e-15,-0.8421295881271362,-0.5963892936706543,0.0,3.1746625900268555,-1.740574836730957,-1.1505062878131866,17.0,0.0,3.1267404556274414,-1.5610456466674805,-1.1505062878131866,15.5,0.0,3.2848119735717773,-1.750946044921875,-0.9587552398443222,12.75,0.0,2.8839111328125,-1.095414161682129,-0.7670041918754578,19.5,0.0,3.059506416320801,-1.1612176895141602,-1.1505062878131866,16.75,0.0,2.7980804443359375,-0.9877681732177734,-0.7670041918754578,19.75,0.0,2.7208328247070312,-0.7756948471069336,-1.1505062878131866,15.75,0.0,2.629995346069336,-0.40018558502197266,-0.3835020959377289,12.5,,,,,,,,,,,,,,,,,,,,,,,,,,,,,,,,,,,
0.0,-9.93836356628561e-16,2.8171610832214355,-0.8204088807106018,3.668058813909329e-15,-0.9250315427780151,-0.7211815118789673,6.779846103884815e-15,-0.9824699759483337,-0.44142472743988037,0.0,3.103494644165039,-1.4712810516357422,-1.5340083837509155,14.5,0.0,3.0072927474975586,-1.324295997619629,-1.5340083837509155,14.25,0.0,2.6482343673706055,-0.6158351898193359,-0.5752531439065933,22.0,0.0,2.766251564025879,-0.779271125793457,-0.7670041918754578,19.5,0.0,2.947568893432617,-0.8511543273925781,-0.7670041918754578,16.0,0.0,2.4944543838500977,-0.4903078079223633,-0.9587552398443222,16.5,0.0,2.569913864135742,-0.5099773406982422,-0.9587552398443222,22.0,0.0,3.2601356506347656,-1.6050338745117188,0.0,24.0,,,,,,,,,,,,,,,,,,,,,,,,,,,,,,,,,,,
0.0,-4.193008435882247e-16,2.7124037742614746,-0.9778777360916138,4.585704662811484e-15,-1.0222361087799072,-0.9292191863059998,6.936913117360074e-15,-0.9572195410728455,-0.59676593542099,0.0,2.830982208251953,-1.3672113418579102,-0.3835020959377289,19.0,0.0,2.8939247131347656,-1.4548301696777344,-0.3835020959377289,19.25,0.0,2.9665231704711914,-1.5778541564941406,-0.3835020959377289,15.0,0.0,2.7333498001098633,-1.107931137084961,-0.3835020959377289,18.0,0.0,2.3821592330932617,-0.7821321487426758,-0.5752531439065933,21.5,0.0,2.4154186248779297,-0.8325576782226562,-0.9587552398443222,23.75,0.0,2.524852752685547,-0.916600227355957,-0.3835020959377289,20.5,0.0,1.738429069519043,-1.3196468353271484,0.0,15.75,,,,,,,,,,,,,,,,,,,,,,,,,,,,,,,,,,,
0.0,8.069445983964284e-17,2.597930431365967,-1.1738923788070679,5.317661831434183e-15,-1.089126706123352,-1.2177733182907104,6.9708372104140826e-15,-0.8648921847343445,-0.8392128944396973,0.0,1.8950700759887695,-1.2745857238769531,-0.19175104796886444,17.5,0.0,2.955794334411621,-1.6193389892578125,-0.3835020959377289,15.5,0.0,2.4672746658325195,-1.1311769485473633,-0.19175104796886444,22.5,0.0,2.670764923095703,-1.2270212173461914,-0.19175104796886444,19.25,0.0,2.7598142623901367,-1.4190673828125,-0.19175104796886444,19.75,0.0,2.8592348098754883,-1.5145540237426758,-0.19175104796886444,19.0,0.0,2.300262451171875,-0.9323358535766602,-0.19175104796886444,23.5,0.0,2.3485422134399414,-1.018524169921875,-0.19175104796886444,25.75,0.0,2.161860466003418,-0.9902715682983398,0.0,18.5,,,,,,,,,,,,,,,,,,,,,,,,,,,,,,
0.0,5.330640917284961e-16,2.468221426010132,-1.3191920518875122,5.877011473098348e-15,-1.172568917274475,-1.3717989921569824,6.886545573701018e-15,-0.8242937922477722,-0.9302695393562317,0.0,2.2748708724975586,-1.269221305847168,-0.19175104796886444,26.5,0.0,2.330303192138672,-1.3275146484375,-0.19175104796886444,25.25,0.0,2.454042434692383,-1.3478994369506836,-0.19175104796886444,16.75,0.0,2.039194107055664,-1.0800361633300781,0.19175104796886444,17.25,0.0,2.2466182708740234,-1.0557174682617188,-0.19175104796886444,22.25,0.0,2.0835399627685547,-1.165151596069336,0.0,20.25,0.0,3.0230283737182617,-1.3246536254882812,0.0,22.0,,,,,,,,,,,,,,,,,,,,,,,,,,,,,,,,,,,,,,,,
0.0,9.641866035846347e-16,2.348806142807007,-1.4270744323730469,6.316767262390258e-15,-1.2196407318115234,-1.4299503564834595,6.726222565576513e-15,-0.758894681930542,-0.9230647683143616,0.0,2.2498369216918945,-1.318216323852539,0.19175104796886444,23.25,0.0,2.048492431640625,-1.0896921157836914,-0.9587552398443222,23.25,0.0,2.197265625,-1.044631004333496,0.19175104796886444,27.75,0.0,2.2323131561279297,-1.175522804260254,0.19175104796886444,28.0,0.0,1.7409324645996094,-1.3704299926757812,0.0,24.25,0.0,2.104640007019043,-1.1211633682250977,0.0,22.25,0.0,3.014802932739258,-1.3114213943481445,0.0,22.25,,,,,,,,,,,,,,,,,,,,,,,,,,,,,,,,,,,,,,,,
0.0,1.2769980944671343e-15,2.2409825325012207,-1.43229079246521,6.4894391638527834e-15,-1.2628278732299805,-1.2223141193389893,6.386056251541554e-15,-0.7583891749382019,-0.6163595914840698,0.0,2.084970474243164,-1.3203620910644531,-0.7670041918754578,20.0,0.0,2.077460289001465,-1.089334487915039,-0.7670041918754578,22.5,0.0,2.326369285583496,-1.1959075927734375,-0.7670041918754578,12.75,0.0,2.047419548034668,-0.8955001831054688,-0.9587552398443222,22.25,0.0,1.7974376678466797,-1.291036605834961,0.0,25.25,0.0,3.132462501525879,-2.0030736923217773,0.0,13.0,0.0,2.1049976348876953,-1.090407371520996,0.0,22.75,0.0,2.292037010192871,-1.1057853698730469,0.0,23.0,,,,,,,,,,,,,,,,,,,,,,,,,,,,,,,,,,,
0.0,6.959136667857626e-18,3.1396775245666504,-0.4505308270454407,1.7292003910267905e-17,-0.2071337103843689,-0.18813368678092957,8.551712464289646e-18,-0.2007717341184616,-0.1162080243229866,0.0,3.2873153686523438,-1.3164281845092773,-0.19175104796886444,17.25,0.0,3.359556198120117,-1.3829469680786133,-0.19175104796886444,18.75,0.0,3.5469532012939453,-1.0696649551391602,-0.19175104796886444,14.5,0.0,3.2236576080322266,-0.6759166717529297,-0.19175104796886444,15.25,0.0,3.061652183532715,0.08296966552734375,-0.19175104796886444,17.0,0.0,2.867460250854492,0.25141239166259766,-0.3835020959377289,14.0,0.0,2.95865535736084,0.11301040649414062,-0.3835020959377289,18.0,0.0,3.54158878326416,1.3890266418457031,0.0,14.25,,,,,,,,,,,,,,,,,,,,,,,,,,,,,,,,,,,
0.0,6.621258203048091e-18,3.1129472255706787,-0.4807624816894531,1.5372466778750825e-17,-0.26514923572540283,-0.2107349932193756,6.752180214499921e-18,-0.2722780704498291,-0.11827809363603592,0.0,3.2057762145996094,-1.1150836944580078,-0.3835020959377289,27.75,0.0,3.2612085342407227,-1.0635852813720703,-0.3835020959377289,29.0,0.0,3.3234357833862305,-1.0682344436645508,-0.3835020959377289,21.25,0.0,3.105640411376953,-0.14126300811767578,-0.3835020959377289,21.75,0.0,2.9075145721435547,0.15628337860107422,-0.3835020959377289,19.75,0.0,2.9425621032714844,0.13589859008789062,-0.3835020959377289,24.5,0.0,3.391385078430176,-1.0467767715454102,0.0,19.25,0.0,3.3295154571533203,-0.9491443634033203,0.0,25.75,0.0,3.2372474670410156,-0.5868673324584961,0.0,24.25,0.0,3.5126209259033203,1.39617919921875,0.0,14.25,,,,,,,,,,,,,,,,,,,,,,,,,
0.0,6.742951360405667e-18,3.068488836288452,-0.44795122742652893,1.4115858659913344e-17,-0.3382449150085449,-0.12409532070159912,5.485474701925005e-18,-0.346640408039093,-0.028409413993358612,0.0,2.899289131164551,-2.199411392211914,-0.3835020959377289,12.25,0.0,3.1371116638183594,-2.2029876708984375,-0.3835020959377289,13.75,0.0,2.9894113540649414,-1.4562606811523438,-0.3835020959377289,17.75,0.0,3.0248165130615234,-1.576066017150879,-0.3835020959377289,15.5,0.0,2.8606653213500977,0.07045269012451172,-0.5752531439065933,22.5,0.0,2.993345260620117,-0.015377998352050781,-0.5752531439065933,17.75,0.0,2.8753280639648438,0.10192394256591797,-0.5752531439065933,24.0,0.0,3.3180713653564453,-0.9548664093017578,0.0,25.75,0.0,3.210783004760742,-0.7234811782836914,0.0,24.5,0.0,3.4532546997070312,1.546025276184082,0.0,13.75,,,,,,,,,,,,,,,,,,,,,,,,,
0.0,5.753520097880976e-18,3.008481502532959,-0.5011516213417053,1.1421987830818024e-17,-0.4562070369720459,-0.18655812740325928,3.3598056093257823e-18,-0.4796886146068573,-0.06783843040466309,0.0,2.999424934387207,-1.382589340209961,-0.5752531439065933,19.75,0.0,3.130316734313965,-1.4119148254394531,-0.5752531439065933,17.5,0.0,3.299832344055176,-1.291036605834961,-0.3835020959377289,13.0,0.0,3.011941909790039,-0.641942024230957,-0.5752531439065933,20.25,0.0,2.739071846008301,0.06401538848876953,-0.7670041918754578,15.5,0.0,2.7916431427001953,0.0629425048828125,-0.7670041918754578,21.75,0.0,2.8821229934692383,-0.04935264587402344,-0.5752531439065933,20.25,0.0,3.3627748489379883,-1.1572837829589844,0.0,17.75,0.0,3.2018423080444336,-0.7431507110595703,0.0,25.0,0.0,3.31270694732666,-0.9158849716186523,0.0,22.0,0.0,3.3527612686157227,1.715540885925293,0.0,12.75,,,,,,,,,,,,,,,,,,,,
0.0,5.144415727660203e-18,2.9530742168426514,-0.4905724823474884,9.39603474067661e-18,-0.5283752083778381,-0.13911369442939758,1.816443957413371e-18,-0.5213531255722046,-0.01778334379196167,0.0,3.186464309692383,-1.113295555114746,-0.9587552398443222,13.0,0.0,2.9886960983276367,-0.7073879241943359,-0.3835020959377289,22.75,0.0,3.073453903198242,-0.8997917175292969,-0.3835020959377289,19.0,0.0,2.882838249206543,-0.3350973129272461,-0.3835020959377289,23.75,0.0,2.704739570617676,0.04220008850097656,-0.7670041918754578,20.75,0.0,2.774834632873535,-0.0661611557006836,-0.7670041918754578,24.25,0.0,3.2923221588134766,-0.9824037551879883,0.0,21.25,0.0,3.3463239669799805,-1.1830329895019531,0.0,17.5,0.0,3.183603286743164,-0.8100271224975586,0.0,24.25,0.0,3.313422203063965,1.7924308776855469,0.0,12.75,0.0,3.320932388305664,1.7963647842407227,0.0,12.5,,,,,,,,,,,,,,,,,,,,
0.0,4.5319008917738744e-18,2.8989830017089844,-0.6063084006309509,7.495311005011436e-18,-0.5682505965232849,-0.3188723027706146,4.657533496798735e-19,-0.4884987473487854,-0.17282892763614655,0.0,2.9532909393310547,-1.520991325378418,-0.19175104796886444,14.75,0.0,2.9325485229492188,-1.1941194534301758,-0.19175104796886444,24.0,0.0,2.9157400131225586,-0.9913444519042969,-0.19175104796886444,29.0,0.0,2.9000043869018555,-0.7377862930297852,-0.19175104796886444,27.5,0.0,2.695798873901367,-0.3676414489746094,-0.7670041918754578,17.75,0.0,2.82132625579834,-0.36585330963134766,-0.9587552398443222,23.25,0.0,3.271937370300293,-1.0467767715454102,0.0,20.0,0.0,3.1832456588745117,-0.7753372192382812,0.0,23.75,,,,,,,,,,,,,,,,,,,,,,,,,,,,,,,,,,,
0.0,3.745763326854503e-18,2.763446092605591,-0.7191148996353149,5.421516269781792e-18,-0.8651843070983887,-0.42785418033599854,-9.794810035387146e-19,-0.8828134536743164,-0.20153948664665222,0.0,2.8656721115112305,-1.5692710876464844,-1.5340083837509155,20.0,0.0,2.9404163360595703,-1.6597509384155273,-1.5340083837509155,17.5,0.0,2.8542280197143555,-1.3164281845092773,-1.5340083837509155,21.25,0.0,2.796649932861328,-0.8536577224731445,-0.3835020959377289,20.75,0.0,2.5098323822021484,-0.6705522537231445,-1.72575943171978,22.5,0.0,2.6525259017944336,-0.6101131439208984,-0.9587552398443222,22.5,0.0,2.442598342895508,-0.5432367324829102,-1.72575943171978,19.25,0.0,3.1245946884155273,-1.038193702697754,0.0,22.0,,,,,,,,,,,,,,,,,,,,,,,,,,,,,,,,,,,
0.0,3.1010879155472656e-18,2.6171889305114746,-0.9110482931137085,3.706931332998201e-18,-1.0605777502059937,-0.6992924213409424,-2.056944032176173e-18,-1.00444757938385,-0.40807950496673584,0.0,1.9279718399047852,-1.2717247009277344,-0.9587552398443222,19.0,0.0,2.670764923095703,-1.5388727188110352,-1.9175104796886444,16.75,0.0,2.7676820755004883,-1.6329288482666016,-1.72575943171978,13.75,0.0,2.615690231323242,-1.3185739517211914,-1.9175104796886444,17.25,0.0,2.2737979888916016,-0.9255409240722656,-0.9587552398443222,23.5,0.0,2.504110336303711,-0.9588003158569336,0.7670041918754578,20.0,0.0,2.378225326538086,-0.8615255355834961,-0.9587552398443222,24.0,0.0,1.729130744934082,-1.4240741729736328,0.0,20.0,0.0,3.0527114868164062,-1.2720823287963867,0.0,21.0,,,,,,,,,,,,,,,,,,,,,,,,,,,,,,
0.0,2.5413300387441096e-18,2.474682092666626,-1.051322102546692,2.230766111736841e-18,-1.233697533607483,-0.8480225205421448,-2.910900067567236e-18,-1.0986301898956299,-0.4885510802268982,0.0,2.215862274169922,-1.238107681274414,0.19175104796886444,20.0,0.0,2.1153688430786133,-1.0635852813720703,-0.9587552398443222,22.25,0.0,2.4515390396118164,-1.262068748474121,-1.9175104796886444,20.25,0.0,2.58636474609375,-1.326441764831543,-1.9175104796886444,17.75,0.0,2.719759941101074,-1.3897418975830078,-1.9175104796886444,14.75,0.0,2.922534942626953,-1.386880874633789,-0.19175104796886444,12.5,0.0,2.100706100463867,-0.9351968765258789,-0.7670041918754578,20.5,0.0,1.7430782318115234,-1.409769058227539,0.0,21.0,,,,,,,,,,,,,,,,,,,,,,,,,,,,,,,,,,,
0.0,2.1940812719555737e-18,2.3286173343658447,-1.1689022779464722,1.1676163062262706e-18,-1.3623672723770142,-0.9606442451477051,-3.4284661496610527e-18,-1.1058062314987183,-0.552028238773346,0.0,2.0635128021240234,-1.1730194091796875,-0.5752531439065933,23.75,0.0,2.2197961807250977,-1.21307373046875,-0.3835020959377289,22.5,0.0,2.47800350189209,-1.3707876205444336,-1.1505062878131866,14.25,0.0,2.0012855529785156,-1.0557174682617188,-0.5752531439065933,23.0,0.0,2.398252487182617,-1.2205839157104492,-0.3835020959377289,20.0,0.0,1.80816650390625,-1.3303756713867188,0.0,23.0,0.0,2.9032230377197266,-1.4812946319580078,0.0,18.5,,,,,,,,,,,,,,,,,,,,,,,,,,,,,,,,,,,,,,,,
0.0,1.7991478176000402e-18,2.1705894470214844,-1.2427202463150024,1.3558658632359355e-19,-1.4884140491485596,-0.9792770743370056,-3.891850040476268e-18,-1.1132508516311646,-0.5259782671928406,0.0,2.0645856857299805,-1.328587532043457,-0.5752531439065933,21.0,0.0,1.9812583923339844,-1.153707504272461,-0.5752531439065933,24.75,0.0,1.9129514694213867,-0.9580850601196289,-0.9587552398443222,17.75,0.0,1.9383430480957031,-1.0128021240234375,-0.9587552398443222,27.75,0.0,2.3328065872192383,-1.227736473083496,0.19175104796886444,12.5,0.0,1.8603801727294922,-1.25885009765625,0.0,24.25,0.0,2.0856857299804688,-1.152634620666504,0.0,23.75,0.0,2.9218196868896484,-1.4262199401855469,0.0,18.5,,,,,,,,,,,,,,,,,,,,,,,,,,,,,,,,,,,
0.0,1.3906677297503024e-18,2.0342183113098145,-1.3029215335845947,-8.11376034480495e-19,-1.556949257850647,-0.9666875600814819,-4.263500221744812e-18,-1.0617330074310303,-0.4759160876274109,0.0,1.920461654663086,-1.129746437072754,-0.7670041918754578,24.5,0.0,1.9905567169189453,-1.2631416320800781,-0.5752531439065933,24.75,0.0,2.1532773971557617,-1.2770891189575195,-0.3835020959377289,22.5,0.0,1.8786191940307617,-0.9688138961791992,-0.7670041918754578,15.75,0.0,2.3549795150756836,-1.203775405883789,-0.9587552398443222,16.75,0.0,1.867532730102539,-1.2155771255493164,0.0,24.75,0.0,2.0824670791625977,-1.153707504272461,0.0,24.0,,,,,,,,,,,,,,,,,,,,,,,,,,,,,,,,,,,,,,,,
0.0,1.0374163200516223e-18,1.9189833402633667,-1.3538274765014648,-1.5817055058097305e-18,-1.5747826099395752,-0.9299216270446777,-4.489537663882584e-18,-0.9689831137657166,-0.40551477670669556,0.0,1.932978630065918,-1.2030601501464844,-0.5752531439065933,20.5,0.0,2.033829689025879,-1.2316703796386719,-0.9587552398443222,22.25,0.0,2.1404027938842773,-1.2388229370117188,-0.9587552398443222,20.25,0.0,2.3299455642700195,-1.2137889862060547,-0.19175104796886444,12.75,0.0,1.8646717071533203,-1.2238025665283203,0.0,25.25,0.0,2.0799636840820312,-1.1408329010009766,0.0,24.25,,,,,,,,,,,,,,,,,,,,,,,,,,,,,,,,,,,,,,,,,,,,,
0.0,6.647820006492934e-19,1.8691431283950806,-1.3830822706222534,-2.289112950604494e-18,-1.4376510381698608,-0.8857043981552124,-4.651183231236165e-18,-0.7060356140136719,-0.3661501407623291,0.0,1.8957853317260742,-1.166224479675293,0.3835020959377289,20.0,0.0,2.1239519119262695,-1.078963279724121,-0.19175104796886444,20.0,0.0,2.296328544616699,-1.0181665420532227,-0.19175104796886444,19.25,0.0,2.4143457412719727,-0.9984970092773438,-0.19175104796886444,13.75,0.0,2.3016929626464844,-1.0921955108642578,0.0,25.0,,,,,,,,,,,,,,,,,,,,,,,,,,,,,,,,,,,,,,,,,,,,,,,,,,
0.0,3.356164360269324e-19,1.7980782985687256,-1.3835123777389526,-2.8543403524130037e-18,-1.3639914989471436,-0.759416401386261,-4.7119541228889045e-18,-0.5652010440826416,-0.22235113382339478,0.0,1.9544363021850586,-1.0521411895751953,-0.9587552398443222,23.0,0.0,2.035975456237793,-1.0857582092285156,-0.9587552398443222,21.25,0.0,2.1643638610839844,-1.1157989501953125,-0.19175104796886444,15.75,0.0,2.9397010803222656,-1.4240741729736328,0.19175104796886444,18.5,0.0,2.9736757278442383,-1.4702081680297852,0.19175104796886444,23.25,0.0,2.985835075378418,-1.5006065368652344,0.19175104796886444,20.75,0.0,2.918243408203125,-1.4891624450683594,0.0,17.25,0.0,3.005504608154297,-1.5052556991577148,0.0,14.5,,,,,,,,,,,,,,,,,,,,,,,,,,,,,,,,,,,
0.0,6.866188773494e-21,1.7083910703659058,-1.4355731010437012,-3.352297911291098e-18,-1.3151339292526245,-0.7570861577987671,-4.726979445125624e-18,-0.447178453207016,-0.2211703658103943,0.0,1.810312271118164,-1.1898279190063477,0.19175104796886444,23.5,0.0,1.9043684005737305,-1.1773109436035156,0.19175104796886444,17.0,0.0,2.9633045196533203,-1.4780759811401367,-0.19175104796886444,18.75,0.0,2.9658079147338867,-1.5839338302612305,-0.19175104796886444,16.0,0.0,2.9633045196533203,-1.3039112091064453,-0.3835020959377289,14.0,,,,,,,,,,,,,,,,,,,,,,,,,,,,,,,,,,,,,,,,,,,,,,,,,,
0.0,-1.303422504357684e-22,3.0730032920837402,-0.42046234011650085,-6.142756117969764e-22,-0.3335602879524231,-0.01771768182516098,-2.11478487803922e-22,-0.3534110188484192,-0.04981498047709465,0.0,3.2930374145507812,-1.5213489532470703,-0.3835020959377289,17.0,0.0,3.335237503051758,-1.774907112121582,-0.3835020959377289,15.75,0.0,3.2755136489868164,-0.9512901306152344,-0.5752531439065933,18.5,0.0,3.186464309692383,-0.6719827651977539,-0.5752531439065933,22.25,0.0,2.9822587966918945,-0.3179311752319336,-0.3835020959377289,20.75,0.0,3.108859062194824,-0.42057037353515625,-0.3835020959377289,23.5,0.0,2.6764869689941406,0.06258487701416016,-0.7670041918754578,15.5,0.0,2.801656723022461,0.07081031799316406,-0.5752531439065933,18.25,0.0,3.199338912963867,-0.5303621292114258,0.0,25.0,0.0,3.007650375366211,0.07081031799316406,0.0,28.0,0.0,3.0688047409057617,-0.05793571472167969,0.0,28.25,0.0,2.922177314758301,0.12123584747314453,0.0,20.5,,,,,,,,,,,,,,,
0.0,-1.5851665116856478e-22,3.0308077335357666,-0.46993929147720337,-5.9000691820391445e-22,-0.3844015300273895,-0.10424645245075226,-1.8244119945855866e-22,-0.37161073088645935,-0.11777922511100769,0.0,3.03804874420166,-1.7327070236206055,-0.5752531439065933,18.5,0.0,3.17537784576416,-1.8124580383300781,-0.5752531439065933,17.75,0.0,3.312349319458008,-1.8213987350463867,-0.5752531439065933,17.0,0.0,3.4765005111694336,-2.034902572631836,-0.5752531439065933,12.5,0.0,3.0552148818969727,-0.6973743438720703,-0.19175104796886444,19.75,0.0,3.1489133834838867,-0.8618831634521484,-0.19175104796886444,19.25,0.0,2.930760383605957,-0.5589723587036133,-0.5752531439065933,17.5,0.0,2.800583839416504,-0.4323720932006836,-0.7670041918754578,14.75,0.0,3.182530403137207,-0.6022453308105469,0.0,25.0,0.0,2.9207468032836914,0.09119510650634766,0.0,21.0,0.0,3.0001401901245117,0.056862831115722656,0.0,28.0,0.0,3.065943717956543,-0.00035762786865234375,0.0,27.75,,,,,,,,,,,,,,,
0.0,-1.6015138553434893e-22,2.9616594314575195,-0.5953086018562317,-5.301439117995176e-22,-0.4870801866054535,-0.3101498484611511,-1.3230362370341198e-22,-0.4527371823787689,-0.2768285274505615,0.0,3.1850337982177734,-1.760244369506836,-1.1505062878131866,17.75,0.0,3.2072067260742188,-1.9294023513793945,-1.1505062878131866,15.0,0.0,3.057718276977539,-1.5578269958496094,-0.7670041918754578,15.25,0.0,2.7927160263061523,-0.8754730224609375,-0.3835020959377289,20.75,0.0,3.092050552368164,-0.9380578994750977,-0.3835020959377289,20.25,0.0,2.658963203430176,-0.6862878799438477,-1.1505062878131866,22.75,0.0,3.0341148376464844,-0.7917881011962891,-0.3835020959377289,22.75,0.0,2.639293670654297,-0.4380941390991211,-0.19175104796886444,20.25,0.0,3.1682252883911133,-0.6483793258666992,0.0,22.75,0.0,2.817392349243164,-0.3311634063720703,0.0,23.75,0.0,2.981901168823242,0.04649162292480469,0.0,28.0,0.0,3.060579299926758,-0.027894973754882812,0.0,27.75,,,,,,,,,,,,,,,
0.0,-1.5675740299750054e-22,2.8864712715148926,-0.7137467265129089,-4.662214397986279e-22,-0.6021215915679932,-0.4772092401981354,-8.257722749561547e-23,-0.5519121885299683,-0.38470664620399475,0.0,2.9407739639282227,-1.6876459121704102,-1.342257335782051,12.25,0.0,2.6750564575195312,-0.8318424224853516,-0.7670041918754578,17.25,0.0,2.859950065612793,-0.9187459945678711,-0.7670041918754578,20.75,0.0,3.017306327819824,-0.9698867797851562,-0.5752531439065933,16.75,0.0,2.9772520065307617,-0.8507966995239258,-0.5752531439065933,23.25,0.0,2.5649070739746094,-0.5725622177124023,-0.19175104796886444,16.0,0.0,3.21042537689209,-1.169443130493164,0.0,19.5,0.0,3.138899803161621,-0.7599592208862305,0.0,23.75,0.0,2.652883529663086,-0.40912628173828125,0.0,20.25,0.0,2.822756767272949,-0.32830238342285156,0.0,23.5,0.0,3.068089485168457,-0.3293752670288086,0.0,29.0,0.0,2.9915571212768555,-0.08118152618408203,0.0,28.25,,,,,,,,,,,,,,,
0.0,-1.4291784184646932e-22,2.7813057899475098,-0.8627162575721741,-3.9172242565151425e-22,-0.760884702205658,-0.674695611000061,-2.9025587960417096e-23,-0.6881982088088989,-0.5055093169212341,0.0,1.7194747924804688,-1.3729333877563477,-0.19175104796886444,20.0,0.0,2.935051918029785,-1.4487504959106445,-0.19175104796886444,18.5,0.0,2.9468536376953125,-1.5846490859985352,-1.342257335782051,15.0,0.0,2.19118595123291,-0.9380578994750977,-0.7670041918754578,18.25,0.0,2.8874874114990234,-1.2170076370239258,-0.5752531439065933,16.0,0.0,2.6285648345947266,-0.8736848831176758,-0.7670041918754578,18.0,0.0,2.7905702590942383,-0.9366273880004883,-0.7670041918754578,16.25,0.0,2.487659454345703,-0.6598234176635742,-0.7670041918754578,18.0,0.0,1.8389225006103516,-1.4355182647705078,0.0,22.0,0.0,3.187894821166992,-1.2187957763671875,0.0,19.5,0.0,3.1238794326782227,-0.8361339569091797,0.0,21.5,0.0,2.7905702590942383,-0.4477500915527344,0.0,22.5,0.0,3.0716657638549805,-0.4144906997680664,0.0,25.25,0.0,2.9937028884887695,-0.20813941955566406,0.0,25.25,,,,,
0.0,-1.2531947838891759e-22,2.672520160675049,-1.035364031791687,-3.1770642157033654e-22,-0.8759176731109619,-0.909530520439148,2.0832693168957887e-23,-0.7249140739440918,-0.6668537259101868,0.0,1.866459846496582,-1.2606382369995117,-0.19175104796886444,17.5,0.0,2.9075145721435547,-1.4913082122802734,-0.19175104796886444,17.5,0.0,3.001570701599121,-1.5739202499389648,-0.19175104796886444,16.5,0.0,2.2230148315429688,-0.9645223617553711,-0.5752531439065933,19.75,0.0,2.3925304412841797,-0.9305477142333984,-0.5752531439065933,20.25,0.0,2.724766731262207,-1.1200904846191406,-0.19175104796886444,19.5,0.0,2.8231143951416016,-1.255631446838379,-0.3835020959377289,17.5,0.0,2.6242733001708984,-0.9047985076904297,-1.1505062878131866,19.75,0.0,1.6990900039672852,-1.452326774597168,0.0,23.5,0.0,1.9057989120483398,-1.3600587844848633,0.0,21.75,0.0,3.1120777130126953,-0.8919239044189453,0.0,21.25,0.0,2.7723312377929688,-0.4731416702270508,0.0,23.0,0.0,3.0580759048461914,-0.5700588226318359,0.0,23.25,0.0,2.976536750793457,-0.22530555725097656,0.0,25.0,,,,,
0.0,-1.1037791010772883e-22,2.5757522583007812,-1.1563540697097778,-2.5184312455066246e-22,-0.960189700126648,-1.0235179662704468,6.2639645329481e-23,-0.7370537519454956,-0.707901656627655,0.0,2.444744110107422,-1.2080669403076172,-1.1505062878131866,20.25,0.0,2.6450157165527344,-1.3850927352905273,-1.342257335782051,22.0,0.0,2.7648210525512695,-1.4351606369018555,-0.5752531439065933,21.25,0.0,2.878904342651367,-1.4777183532714844,-0.5752531439065933,20.0,0.0,2.9654502868652344,-1.5964508056640625,-0.5752531439065933,17.25,0.0,2.2319555282592773,-0.857234001159668,-0.3835020959377289,16.25,0.0,2.288818359375,-0.9019374847412109,-0.3835020959377289,24.25,0.0,2.326369285583496,-0.9577274322509766,1.1505062878131866,24.0,0.0,1.6983747482299805,-1.452326774597168,0.0,23.75,0.0,2.021670341491699,-1.255631446838379,0.0,22.5,0.0,3.1882524490356445,-1.2080669403076172,0.0,18.25,0.0,2.4465322494506836,-0.8314847946166992,0.0,22.75,0.0,2.858877182006836,-0.8511543273925781,0.0,20.75,0.0,3.019094467163086,-0.8268356323242188,0.0,20.0,0.0,3.1163692474365234,-0.9101629257202148,0.0,20.25
0.0,-9.969822282042539e-23,2.4443225860595703,-1.2479466199874878,-1.953459667477902e-22,-1.132743239402771,-1.026030421257019,9.630907442320418e-23,-0.8921716213226318,-0.6062687039375305,0.0,1.977682113647461,-1.1762380599975586,-0.7670041918754578,14.75,0.0,2.2662878036499023,-1.3121366500854492,-0.7670041918754578,21.0,0.0,2.3546218872070312,-1.3997554779052734,-0.7670041918754578,22.5,0.0,2.4690628051757812,-1.4308691024780273,-2.4927636235952377,18.75,0.0,2.623915672302246,-1.530289649963379,-2.4927636235952377,12.75,0.0,3.1049251556396484,-1.5349388122558594,-0.19175104796886444,12.75,0.0,2.235531806945801,-1.0024309158325195,-0.7670041918754578,17.5,0.0,1.6940832138061523,-1.4605522155761719,0.0,24.0,0.0,2.0238161087036133,-1.2559890747070312,0.0,22.75,0.0,2.432584762573242,-0.8701086044311523,0.0,23.0,,,,,,,,,,,,,,,,,,,,,,,,,
0.0,-9.506789329670393e-23,2.323117971420288,-1.3068063259124756,-1.5244475722664244e-22,-1.2287884950637817,-0.9941753149032593,1.186179093615606e-22,-0.9070937037467957,-0.5158936977386475,0.0,2.2187232971191406,-1.2030601501464844,0.19175104796886444,27.75,0.0,2.284526824951172,-1.342177391052246,-1.72575943171978,23.0,0.0,2.3936033248901367,-1.4823675155639648,-1.5340083837509155,16.0,0.0,2.2001266479492188,-1.0668039321899414,-0.5752531439065933,27.0,0.0,2.159714698791504,-0.8819103240966797,-0.5752531439065933,21.25,0.0,2.300262451171875,-1.1390447616577148,0.0,27.0,,,,,,,,,,,,,,,,,,,,,,,,,,,,,,,,,,,,,,,,,,,,,
0.0,-8.613805726936173e-23,2.191931962966919,-1.3181558847427368,-1.0735714082058411e-22,-1.326812982559204,-0.8662552833557129,1.4098274711330046e-22,-0.9291282892227173,-0.34037718176841736,0.0,2.1729469299316406,-1.2377500534057617,-0.9587552398443222,20.75,0.0,2.2344589233398438,-1.3600587844848633,-0.9587552398443222,13.75,0.0,1.9129514694213867,-0.9809732437133789,-0.9587552398443222,15.5,0.0,1.9615888595581055,-0.9584426879882812,-0.9587552398443222,25.75,0.0,2.069234848022461,-1.0328292846679688,-0.9587552398443222,21.75,0.0,2.296328544616699,-1.1504888534545898,0.0,27.0,,,,,,,,,,,,,,,,,,,,,,,,,,,,,,,,,,,,,,,,,,,,,
0.0,-8.681273746108492e-26,3.1395668983459473,-0.6292185187339783,-1.0336576328793509e-25,-0.17459845542907715,-0.5144472122192383,1.1073636189635118e-25,-0.2522870898246765,-0.18739578127861023,0.0,3.2061338424682617,-1.2531280517578125,-0.19175104796886444,24.0,0.0,3.271937370300293,-1.3353824615478516,-0.19175104796886444,19.0,0.0,3.1599998474121094,-1.0575056076049805,-0.3835020959377289,23.5,0.0,3.078460693359375,-0.39947032928466797,-0.19175104796886444,22.0,0.0,2.9457807540893555,0.06258487701416016,-0.19175104796886444,23.25,0.0,2.8835535049438477,0.16307830810546875,-0.19175104796886444,19.75,0.0,3.442525863647461,-1.4051198959350586,0.0,17.0,0.0,3.371000289916992,-1.1801719665527344,0.0,21.75,0.0,3.795146942138672,-1.3500452041625977,0.0,12.25,0.0,3.0755996704101562,-0.07867813110351562,0.0,28.25,,,,,,,,,,,,,,,,,,,,,,,,,
0.0,-6.909706624540707e-26,3.1134777069091797,-0.5996764302253723,-5.823080309882709e-26,-0.28086230158805847,-0.37212586402893066,1.3212983823763747e-25,-0.4061650037765503,-0.029250502586364746,0.0,3.3817291259765625,-1.232743263244629,-0.19175104796886444,16.0,0.0,3.5190582275390625,-1.289963722229004,-0.19175104796886444,12.5,0.0,3.356337547302246,-0.9273290634155273,-0.9587552398443222,18.5,0.0,3.2368898391723633,-0.5764961242675781,-0.9587552398443222,17.75,0.0,3.0384063720703125,-0.21457672119140625,-0.5752531439065933,20.0,0.0,2.8835535049438477,0.06186962127685547,-0.3835020959377289,18.5,0.0,2.936124801635742,-0.02181529998779297,-0.5752531439065933,22.25,0.0,3.4554004669189453,-1.4011859893798828,0.0,16.5,0.0,3.3674240112304688,-1.1998414993286133,0.0,21.25,0.0,3.8030147552490234,-1.3282299041748047,0.0,12.25,,,,,,,,,,,,,,,,,,,,,,,,,
0.0,-5.614092567162197e-26,3.058793067932129,-0.6107217073440552,-2.2278878722015597e-26,-0.384146124124527,-0.32252776622772217,1.465178969398668e-25,-0.49564188718795776,0.023831848055124283,0.0,3.0051469802856445,-1.8242597579956055,-0.5752531439065933,13.25,0.0,3.0738115310668945,-1.4405250549316406,-0.5752531439065933,20.25,0.0,3.077387809753418,-1.1805295944213867,-0.5752531439065933,23.0,0.0,3.0144453048706055,-0.34046173095703125,-0.3835020959377289,23.25,0.0,2.8717517852783203,-0.16558170318603516,-0.5752531439065933,23.25,0.0,2.9093027114868164,-0.2778768539428711,-0.3835020959377289,26.75,0.0,2.773761749267578,0.02110004425048828,-0.5752531439065933,13.25,0.0,3.4182071685791016,-1.4655590057373047,0.0,16.5,0.0,3.7633180618286133,-1.4365911483764648,0.0,12.0,,,,,,,,,,,,,,,,,,,,,,,,,,,,,,
0.0,-4.355946937591356e-26,2.990262985229492,-0.6660016179084778,1.0439581841492743e-26,-0.504248321056366,-0.3521993160247803,1.581439687236427e-25,-0.5924555659294128,0.0052241310477256775,0.0,3.1163692474365234,-1.215219497680664,-0.3835020959377289,18.75,0.0,3.003716468811035,-1.0131597518920898,0.19175104796886444,24.5,0.0,3.0509233474731445,-1.1157989501953125,0.19175104796886444,24.25,0.0,2.866029739379883,-0.6122589111328125,-0.7670041918754578,19.75,0.0,2.7294158935546875,-0.29075145721435547,-1.5340083837509155,23.25,0.0,2.706170082092285,-0.2378225326538086,-1.5340083837509155,19.5,0.0,3.412485122680664,-1.501321792602539,0.0,16.5,0.0,3.7729740142822266,-1.4111995697021484,0.0,12.25,,,,,,,,,,,,,,,,,,,,,,,,,,,,,,,,,,,
0.0,-3.020539161627521e-26,2.9188544750213623,-0.8196360468864441,4.142650042176074e-26,-0.6168486475944519,-0.5536645650863647,1.6802734816017223e-25,-0.659296452999115,-0.16274848580360413,0.0,3.14176082611084,-1.713395118713379,-0.19175104796886444,14.25,0.0,2.796649932861328,-1.4891624450683594,-0.19175104796886444,20.75,0.0,2.922534942626953,-1.4802217483520508,-0.19175104796886444,19.75,0.0,3.057718276977539,-1.5124082565307617,-0.19175104796886444,16.75,0.0,2.587437629699707,-0.5221366882324219,-0.9587552398443222,18.0,0.0,2.6950836181640625,-0.48279762268066406,-0.9587552398443222,18.0,0.0,2.8971433639526367,-0.4985332489013672,-0.9587552398443222,17.5,0.0,3.3971071243286133,-1.5295743942260742,0.0,17.0,0.0,3.0670166015625,-0.4380941390991211,0.0,23.25,,,,,,,,,,,,,,,,,,,,,,,,,,,,,,
0.0,-1.852994361095709e-26,2.829634666442871,-0.8849831223487854,6.709432097037394e-26,-0.7370181083679199,-0.5777270197868347,1.738442482379006e-25,-0.7299730181694031,-0.16056427359580994,0.0,2.8252601623535156,-1.9437074661254883,-0.9587552398443222,15.75,0.0,2.918243408203125,-1.5141963958740234,-0.9587552398443222,15.0,0.0,2.8781890869140625,-1.227736473083496,-0.7670041918754578,17.75,0.0,2.620697021484375,-0.6104707717895508,-0.3835020959377289,20.75,0.0,2.7762651443481445,-0.7592439651489258,-0.7670041918754578,17.0,0.0,2.5162696838378906,-0.4241466522216797,-0.3835020959377289,15.25,0.0,2.5731325149536133,-0.4627704620361328,-0.3835020959377289,21.5,0.0,3.055572509765625,-0.5135536193847656,0.0,23.0,,,,,,,,,,,,,,,,,,,,,,,,,,,,,,,,,,,
0.0,-8.271627214342163e-27,2.728695869445801,-0.9839600324630737,8.80626814024318e-26,-0.9135776162147522,-0.6317625641822815,1.7626236575738752e-25,-0.8981682062149048,-0.1613723337650299,0.0,2.9736757278442383,-1.6711950302124023,-0.19175104796886444,15.25,0.0,2.8148889541625977,-1.3464689254760742,-1.9175104796886444,22.0,0.0,2.90679931640625,-1.3886690139770508,-1.9175104796886444,18.5,0.0,3.1911134719848633,-1.661539077758789,-1.1505062878131866,14.0,0.0,2.744436264038086,-1.2248754501342773,-0.5752531439065933,21.0,0.0,2.593874931335449,-0.891566276550293,-0.5752531439065933,18.0,0.0,2.458333969116211,-0.5682706832885742,-0.5752531439065933,17.25,0.0,2.46584415435791,-0.7156133651733398,-0.5752531439065933,21.0,0.0,1.930832862854004,-1.4237165451049805,0.0,19.75,0.0,3.0487775802612305,-0.6079673767089844,0.0,22.5,,,,,,,,,,,,,,,,,,,,,,,,,
0.0,9.24564817997453e-28,2.578280210494995,-1.1251428127288818,1.0506712671931887e-25,-1.0986026525497437,-0.7872259020805359,1.7588983852084854e-25,-0.9929144382476807,-0.2793617844581604,0.0,1.842498779296875,-1.3232231140136719,-0.19175104796886444,16.0,0.0,2.496957778930664,-1.3575553894042969,-1.72575943171978,18.0,0.0,2.6314258575439453,-1.4913082122802734,-2.3010125756263733,15.0,0.0,2.2641420364379883,-1.0646581649780273,-0.3835020959377289,20.0,0.0,2.3546218872070312,-1.1605024337768555,-0.19175104796886444,25.5,0.0,2.390742301940918,-1.262068748474121,-0.19175104796886444,25.0,0.0,2.075314521789551,-1.2981891632080078,0.0,19.5,0.0,3.0924081802368164,-1.422286033630371,0.0,21.25,0.0,3.051280975341797,-1.278519630432129,0.0,21.0,0.0,2.5545358657836914,-0.6254911422729492,0.0,23.0,0.0,3.0487775802612305,-0.7317066192626953,0.0,21.5,,,,,,,,,,,,,,,,,,,,
0.0,9.525808971938664e-27,2.4411840438842773,-1.1816612482070923,1.1867450894821885e-25,-1.2390491962432861,-0.7650526762008667,1.732001063309327e-25,-1.044319987297058,-0.2268557846546173,0.0,2.3213624954223633,-1.2874603271484375,-0.9587552398443222,24.5,0.0,2.367854118347168,-1.4576911926269531,-0.9587552398443222,16.0,0.0,2.2830963134765625,-1.1515617370605469,-0.9587552398443222,26.5,0.0,2.2695064544677734,-0.9577274322509766,-0.9587552398443222,25.0,0.0,2.2226572036743164,-0.8168220520019531,-0.7670041918754578,18.25,0.0,1.8607378005981445,-1.3571977615356445,0.0,18.5,0.0,2.2079944610595703,-1.1140108108520508,0.0,21.5,0.0,3.0895471572875977,-1.444101333618164,0.0,20.0,0.0,3.024458885192871,-1.3114213943481445,0.0,20.0,0.0,2.462625503540039,-0.8815526962280273,0.0,25.25,0.0,2.6160478591918945,-0.7760524749755859,0.0,25.25,0.0,3.015875816345215,-0.7739067077636719,0.0,19.0,,,,,,,,,,,,,,,
0.0,1.671345116898576e-26,2.2850582599639893,-1.238084077835083,1.2794611442679784e-25,-1.4252229928970337,-0.7148764729499817,1.6770471637588848e-25,-1.1700973510742188,-0.12898419797420502,0.0,2.001643180847168,-1.169443130493164,-1.5340083837509155,22.0,0.0,2.0824670791625977,-1.2423992156982422,-1.5340083837509155,26.25,0.0,2.1386146545410156,-1.3099908828735352,-1.5340083837509155,26.25,0.0,2.231597900390625,-1.3579130172729492,-1.5340083837509155,20.75,0.0,3.179311752319336,-1.3443231582641602,-0.7670041918754578,12.0,0.0,1.8786191940307617,-1.3189315795898438,0.0,18.75,0.0,2.244114875793457,-1.042485237121582,0.0,22.25,0.0,3.0552148818969727,-1.4812946319580078,0.0,19.5,0.0,2.422928810119629,-0.9502172470092773,0.0,25.5,0.0,3.028750419616699,-1.2974739074707031,0.0,20.0,0.0,2.9554367065429688,-1.0542869567871094,0.0,18.0,0.0,2.6088953018188477,-0.754237174987793,0.0,25.0,,,,,,,,,,,,,,,
0.0,2.468516640941212e-26,2.1371207237243652,-1.3011245727539062,1.367737884309637e-25,-1.5372682809829712,-0.7143500447273254,1.623949675785557e-25,-1.1620240211486816,-0.11990464478731155,0.0,1.9834041595458984,-1.1383295059204102,-0.19175104796886444,21.75,0.0,2.0542144775390625,-1.2545585632324219,-0.7670041918754578,25.0,0.0,2.1407604217529297,-1.2774467468261719,-1.342257335782051,24.25,0.0,2.2287368774414062,-1.3267993927001953,-1.342257335782051,17.0,0.0,2.343893051147461,-1.0907649993896484,0.0,26.5,0.0,3.0308961868286133,-1.5063285827636719,0.0,18.5,0.0,2.9314756393432617,-1.1780261993408203,0.0,19.25,0.0,2.9886960983276367,-1.335740089416504,0.0,20.5,0.0,2.569913864135742,-0.8007287979125977,0.0,24.0,,,,,,,,,,,,,,,,,,,,,,,,,,,,,,
0.0,3.3208652875185646e-26,1.9912242889404297,-1.354736089706421,1.4475549539594155e-25,-1.6188701391220093,-0.7034844756126404,1.5693611174418453e-25,-1.1181137561798096,-0.11008632928133011,0.0,1.8514394760131836,-1.2159347534179688,-0.3835020959377289,20.75,0.0,1.9698143005371094,-1.2102127075195312,-0.9587552398443222,18.75,0.0,2.149343490600586,-1.237034797668457,-0.9587552398443222,14.75,0.0,2.3345947265625,-1.1129379272460938,0.0,26.5,0.0,3.039121627807617,-1.547098159790039,0.0,16.5,0.0,2.471923828125,-1.0410547256469727,0.0,23.5,0.0,3.047347068786621,-1.2413263320922852,0.0,17.5,,,,,,,,,,,,,,,,,,,,,,,,,,,,,,,,,,,,,,,,
0.0,3.924980515415055e-26,1.894813060760498,-1.3946120738983154,1.4812891114569948e-25,-1.5688369274139404,-0.7055405378341675,1.4901617012289516e-25,-0.9199186563491821,-0.1498669981956482,0.0,1.8546581268310547,-1.0993480682373047,-0.3835020959377289,12.25,0.0,1.907944679260254,-1.1554956436157227,-0.19175104796886444,24.0,0.0,1.9719600677490234,-1.2019872665405273,-0.19175104796886444,23.0,0.0,2.1632909774780273,-1.136183738708496,-0.19175104796886444,17.5,0.0,2.307772636413574,-1.1022090911865234,0.0,26.75,0.0,2.4590492248535156,-1.0625123977661133,0.0,23.25,,,,,,,,,,,,,,,,,,,,,,,,,,,,,,,,,,,,,,,,,,,,,
0.0,-4.878284291915413e-40,3.2382466793060303,-0.44947269558906555,-3.654652255986946e-39,-0.23607966303825378,0.6590698957443237,-1.6814460533126345e-39,-0.3511314392089844,0.5351232290267944,0.0,3.271937370300293,-1.9519329071044922,-0.3835020959377289,19.75,0.0,3.474712371826172,-2.038121223449707,-0.19175104796886444,16.5,0.0,3.346681594848633,-1.4362335205078125,-0.5752531439065933,19.0,0.0,3.3620595932006836,-0.9101629257202148,-0.5752531439065933,20.75,0.0,3.326296806335449,-0.5249977111816406,-0.5752531439065933,19.25,0.0,3.166079521179199,-0.1977682113647461,-0.5752531439065933,15.0,0.0,2.936124801635742,0.06580352783203125,-0.5752531439065933,14.75,0.0,2.7927160263061523,0.15091896057128906,-0.7670041918754578,14.0,0.0,3.391742706298828,-1.610398292541504,0.0,18.75,0.0,3.406405448913574,-1.0943412780761719,0.0,22.75,0.0,3.3463239669799805,-0.8894205093383789,0.0,27.25,,,,,,,,,,,,,,,,,,,,
0.0,-6.2676016543702526e-40,3.1850428581237793,-0.4283626675605774,-3.528786226622827e-39,-0.35601192712783813,0.6329056620597839,-1.493132559184344e-39,-0.4694453179836273,0.4718511700630188,0.0,3.2955408096313477,-1.8703937530517578,-0.7670041918754578,13.75,0.0,3.280520439147949,-1.5503168106079102,-0.7670041918754578,16.0,0.0,3.6842823028564453,-1.6286373138427734,-0.7670041918754578,12.75,0.0,3.2966136932373047,-1.0886192321777344,-0.7670041918754578,17.0,0.0,3.2204389572143555,-0.6916522979736328,-0.7670041918754578,18.25,0.0,3.0791759490966797,-0.3851652145385742,-0.7670041918754578,18.0,0.0,2.834200859069824,0.010371208190917969,-0.5752531439065933,17.75,0.0,2.9207468032836914,-0.0025033950805664062,-0.5752531439065933,19.5,0.0,3.386378288269043,-1.1790990829467773,0.0,20.5,0.0,3.3298730850219727,-0.9562969207763672,0.0,25.25,,,,,,,,,,,,,,,,,,,,,,,,,
0.0,-7.339426823763019e-40,3.1330113410949707,-0.4342086613178253,-3.3615090250409804e-39,-0.40573233366012573,0.5573374032974243,-1.291551571195826e-39,-0.45397722721099854,0.3660067021846771,0.0,3.238677978515625,-1.9394159317016602,-0.9587552398443222,14.25,0.0,3.1932592391967773,-1.7123222351074219,-1.1505062878131866,16.25,0.0,3.0884742736816406,-0.8053779602050781,-0.19175104796886444,22.5,0.0,3.1585693359375,-0.80108642578125,-0.19175104796886444,23.5,0.0,3.2601356506347656,-0.8808374404907227,-0.7670041918754578,16.25,0.0,2.956867218017578,-0.5997419357299805,-0.5752531439065933,17.25,0.0,2.673625946044922,-0.08547306060791016,-0.3835020959377289,12.25,0.0,2.7894973754882812,-0.15628337860107422,-0.5752531439065933,16.0,0.0,3.3960342407226562,-1.1655092239379883,0.0,20.25,0.0,3.3370256423950195,-0.9459257125854492,0.0,25.0,0.0,3.2705068588256836,-0.5049705505371094,0.0,24.75,,,,,,,,,,,,,,,,,,,,
0.0,-7.921554231812834e-40,3.0413999557495117,-0.5429760217666626,-3.119740198394091e-39,-0.5484211444854736,0.30223843455314636,-1.0488887161286975e-39,-0.5659909844398499,0.11863905191421509,0.0,2.8856992721557617,-1.0843276977539062,-0.9587552398443222,20.75,0.0,2.99835205078125,-1.237034797668457,-0.9587552398443222,18.25,0.0,3.096342086791992,-1.3861656188964844,-0.19175104796886444,14.5,0.0,2.796292304992676,-0.8897781372070312,-1.1505062878131866,22.25,0.0,2.7344226837158203,-0.5718469619750977,-1.1505062878131866,20.25,0.0,2.6428699493408203,-0.2993345260620117,-0.19175104796886444,17.5,,,,,,,,,,,,,,,,,,,,,,,,,,,,,,,,,,,,,,,,,,,,,
0.0,-7.7959558504554e-40,2.9355709552764893,-0.6813182234764099,-2.786751045615049e-39,-0.7034544348716736,0.016316235065460205,-7.598610987724537e-40,-0.6813588738441467,-0.1321702003479004,0.0,3.166079521179199,-1.4895200729370117,-1.1505062878131866,14.5,0.0,3.3338069915771484,-1.4022588729858398,-1.1505062878131866,14.25,0.0,2.581000328063965,-0.8035898208618164,-1.342257335782051,21.5,0.0,2.617478370666504,-0.9298324584960938,-0.7670041918754578,26.25,0.0,2.67791748046875,-0.9241104125976562,-0.7670041918754578,24.75,0.0,2.801656723022461,-1.0249614715576172,-0.5752531439065933,16.75,0.0,2.513766288757324,-0.5074739456176758,-0.3835020959377289,12.5,,,,,,,,,,,,,,,,,,,,,,,,,,,,,,,,,,,,,,,,
0.0,-7.598302702062385e-40,2.8125386238098145,-0.7855623364448547,-2.4511148400368976e-39,-0.8805481195449829,-0.17997442185878754,-4.845213648157347e-40,-0.8179577589035034,-0.28046977519989014,0.0,1.7001628875732422,-1.4111995697021484,-0.19175104796886444,16.0,0.0,2.9010772705078125,-1.484513282775879,-1.342257335782051,13.75,0.0,3.0423402786254883,-1.5742778778076172,0.19175104796886444,13.75,0.0,2.7004480361938477,-1.0231733322143555,-0.9587552398443222,18.75,0.0,2.80916690826416,-1.1987686157226562,-1.342257335782051,15.75,0.0,2.4776458740234375,-0.7742643356323242,-1.1505062878131866,25.25,0.0,2.5724172592163086,-0.8200407028198242,-1.1505062878131866,22.75,0.0,2.438664436340332,-0.6719827651977539,-1.1505062878131866,20.0,0.0,1.8582344055175781,-1.4348030090332031,0.0,21.25,,,,,,,,,,,,,,,,,,,,,,,,,,,,,,
0.0,-7.230980335608921e-40,2.7054946422576904,-0.975862443447113,-2.1196306818085405e-39,-0.9179558753967285,-0.5458500385284424,-2.3524157840006434e-40,-0.7018995881080627,-0.5996411442756653,0.0,2.178311347961426,-1.0017156600952148,-0.19175104796886444,15.75,0.0,2.272367477416992,-1.0596513748168945,-0.3835020959377289,26.0,0.0,2.2916793823242188,-1.089334487915039,-0.3835020959377289,28.5,0.0,2.9658079147338867,-1.4455318450927734,-0.19175104796886444,13.5,0.0,3.055572509765625,-1.5857219696044922,-0.19175104796886444,15.0,0.0,2.388596534729004,-1.078963279724121,-0.3835020959377289,23.25,0.0,2.6460886001586914,-1.0170936584472656,-0.19175104796886444,16.25,0.0,2.867460250854492,-1.143336296081543,-0.9587552398443222,13.25,0.0,1.7237663269042969,-1.4487504959106445,0.0,23.75,0.0,2.1436214447021484,-1.1315345764160156,0.0,23.25,0.0,2.38645076751709,-0.9770393371582031,0.0,25.25,,,,,,,,,,,,,,,,,,,,
0.0,-6.587279873036673e-40,2.6045777797698975,-1.1503701210021973,-1.757182031413998e-39,-0.990328311920166,-0.8325240612030029,2.467406335983138e-41,-0.6853538751602173,-0.8092339038848877,0.0,2.760171890258789,-1.5360116958618164,-1.72575943171978,15.75,0.0,3.1102895736694336,-1.6851425170898438,-0.7670041918754578,12.25,0.0,2.224087715148926,-1.0714530944824219,0.3835020959377289,20.75,0.0,2.2519826889038086,-1.145482063293457,0.3835020959377289,22.5,0.0,2.393960952758789,-1.2105703353881836,0.3835020959377289,17.5,0.0,2.60317325592041,-1.4026165008544922,-1.5340083837509155,16.75,0.0,2.9271841049194336,-1.5456676483154297,-0.19175104796886444,17.75,0.0,3.004789352416992,-1.6096830368041992,-0.9587552398443222,17.5,0.0,2.207636833190918,-0.8300542831420898,-0.7670041918754578,14.0,0.0,1.7287731170654297,-1.4269351959228516,0.0,25.0,0.0,2.0949840545654297,-1.1658668518066406,0.0,24.0,0.0,2.3785829544067383,-0.9834766387939453,0.0,25.25,,,,,,,,,,,,,,,
0.0,-6.303348778195179e-40,2.4634528160095215,-1.2622029781341553,-1.4637851654459893e-39,-1.1112223863601685,-0.9692083597183228,2.2282046881228916e-40,-0.7306811213493347,-0.8623119592666626,0.0,2.189040184020996,-1.443028450012207,-0.19175104796886444,22.5,0.0,2.167224884033203,-1.1723041534423828,-0.19175104796886444,25.0,0.0,2.1529197692871094,-1.3396739959716797,-0.19175104796886444,26.75,0.0,2.398252487182617,-1.4805793762207031,-2.3010125756263733,12.75,0.0,2.1615028381347656,-1.1690855026245117,-0.19175104796886444,24.75,0.0,2.9060840606689453,-1.544952392578125,-0.7670041918754578,12.75,0.0,2.159714698791504,-0.880122184753418,-0.9587552398443222,19.25,0.0,1.764535903930664,-1.4251470565795898,0.0,25.25,0.0,2.110719680786133,-1.1866092681884766,0.0,26.25,,,,,,,,,,,,,,,,,,,,,,,,,,,,,,
0.0,-6.311041906764322e-40,2.3593075275421143,-1.347550392150879,-1.2366949402129024e-39,-1.132934808731079,-1.0497095584869385,3.6149716873726603e-40,-0.6480761766433716,-0.8800197243690491,0.0,2.1543502807617188,-1.2803077697753906,0.19175104796886444,25.25,0.0,2.237677574157715,-1.3793706893920898,0.19175104796886444,20.5,0.0,2.133965492248535,-1.0535717010498047,0.19175104796886444,26.25,0.0,2.1042823791503906,-0.868678092956543,-0.3835020959377289,24.75,0.0,3.1807422637939453,-1.4015436172485352,-1.1505062878131866,13.0,0.0,1.7910003662109375,-1.4104843139648438,0.0,26.5,0.0,3.128170967102051,-1.3686418533325195,0.0,17.75,,,,,,,,,,,,,,,,,,,,,,,,,,,,,,,,,,,,,,,,
0.0,-5.9257829199675e-40,2.231600284576416,-1.3396883010864258,-9.652942562394005e-40,-1.228928804397583,-0.8846602439880371,5.244261411843125e-40,-0.718619167804718,-0.6178469061851501,0.0,2.0145177841186523,-1.1540651321411133,-1.1505062878131866,23.25,0.0,2.1750926971435547,-1.1887550354003906,-1.1505062878131866,21.25,0.0,1.9304752349853516,-0.9294748306274414,-1.1505062878131866,13.75,0.0,1.9354820251464844,-1.044631004333496,-1.1505062878131866,25.75,0.0,2.3671388626098633,-1.1862516403198242,-1.1505062878131866,12.75,0.0,3.117799758911133,-1.4405250549316406,0.0,16.75,,,,,,,,,,,,,,,,,,,,,,,,,,,,,,,,,,,,,,,,,,,,,
0.0,1.401298464324817e-45,3.083815336227417,-0.39367732405662537,-5.605193857299268e-45,-0.21719950437545776,-0.43066853284835815,-1.2611686178923354e-44,-0.1952568143606186,-0.35198333859443665,0.0,3.4704208374023438,-1.4666318893432617,-0.19175104796886444,14.5,0.0,3.3398866653442383,-1.0031461715698242,-0.19175104796886444,20.5,0.0,3.4235715866088867,-1.0868310928344727,-0.3835020959377289,17.5,0.0,3.8405656814575195,-1.2159347534179688,-0.19175104796886444,12.5,0.0,3.2515525817871094,-0.43451786041259766,-0.3835020959377289,19.0,0.0,2.972245216369629,0.08726119995117188,-0.3835020959377289,21.25,0.0,3.076314926147461,-0.030755996704101562,-0.3835020959377289,21.0,0.0,2.8853416442871094,0.13554096221923828,-0.3835020959377289,17.0,0.0,3.3981800079345703,-1.6089677810668945,0.0,12.75,0.0,3.448605537414551,-1.042485237121582,0.0,15.0,0.0,3.3077001571655273,-0.9212493896484375,0.0,20.0,0.0,3.162503242492676,-0.171661376953125,0.0,23.5,0.0,3.519773483276367,1.385807991027832,0.0,12.25,,,,,,,,,,
0.0,1.401298464324817e-45,3.051278591156006,-0.43123799562454224,-5.605193857299268e-45,-0.2847376763820648,-0.444559246301651,-1.2611686178923354e-44,-0.2809801697731018,-0.3254561424255371,0.0,3.1757354736328125,-1.9655227661132812,-0.19175104796886444,15.5,0.0,3.163933753967285,-1.6772747039794922,-0.19175104796886444,19.0,0.0,3.2358169555664062,-1.2320280075073242,-0.19175104796886444,22.0,0.0,3.1785964965820312,-0.9495019912719727,-0.19175104796886444,21.25,0.0,3.0705928802490234,-0.18131732940673828,-0.7670041918754578,22.5,0.0,2.980828285217285,-0.0661611557006836,-0.3835020959377289,22.0,0.0,2.8753280639648438,0.1055002212524414,-0.7670041918754578,17.75,0.0,3.277301788330078,-1.073598861694336,0.0,19.0,0.0,3.4332275390625,-1.1583566665649414,0.0,15.5,0.0,3.154277801513672,-0.19490718841552734,0.0,23.5,0.0,3.0298233032226562,0.006794929504394531,0.0,27.75,0.0,3.0673742294311523,-0.032901763916015625,0.0,29.25,,,,,,,,,,,,,,,
0.0,1.401298464324817e-45,3.0156304836273193,-0.5237039923667908,-8.407790785948902e-45,-0.37758153676986694,-0.5416480302810669,-1.5414283107572988e-44,-0.40787941217422485,-0.36655229330062866,0.0,3.176450729370117,-1.9980669021606445,-0.9587552398443222,14.5,0.0,3.208637237548828,-0.9630918502807617,-0.5752531439065933,25.5,0.0,3.2558441162109375,-1.0596513748168945,-0.3835020959377289,24.5,0.0,3.317713737487793,-1.199483871459961,-0.3835020959377289,18.25,0.0,3.1403303146362305,-0.5886554718017578,-0.5752531439065933,21.25,0.0,2.989053726196289,-0.24712085723876953,-0.7670041918754578,18.0,0.0,2.8274059295654297,0.008940696716308594,-0.7670041918754578,14.25,,,,,,,,,,,,,,,,,,,,,,,,,,,,,,,,,,,,,,,,
0.0,0.0,2.9781601428985596,-0.5328922867774963,-8.407790785948902e-45,-0.43347296118736267,-0.4892275631427765,-1.5414283107572988e-44,-0.44754305481910706,-0.28250032663345337,0.0,3.231167793273926,-1.9669532775878906,-0.19175104796886444,13.25,0.0,3.268718719482422,-1.454472541809082,-0.19175104796886444,15.25,0.0,3.21042537689209,-0.9838342666625977,-0.19175104796886444,18.75,0.0,3.107428550720215,-0.5564689636230469,-0.3835020959377289,27.5,0.0,3.137826919555664,-0.6905794143676758,-0.19175104796886444,24.0,0.0,3.0133724212646484,-0.3751516342163086,-0.3835020959377289,22.5,0.0,2.637505531311035,0.03647804260253906,-0.7670041918754578,17.75,0.0,2.795577049255371,-0.03612041473388672,-0.7670041918754578,19.25,0.0,2.533435821533203,0.09298324584960938,-0.7670041918754578,12.25,0.0,2.9075145721435547,0.01823902130126953,0.0,20.5,,,,,,,,,,,,,,,,,,,,,,,,,
0.0,-1.401298464324817e-45,2.9224393367767334,-0.6391853094100952,-9.80908925027372e-45,-0.5034299492835999,-0.6137480735778809,-1.5414283107572988e-44,-0.47938570380210876,-0.3645094633102417,0.0,3.1403303146362305,-1.2799501419067383,-0.3835020959377289,14.0,0.0,3.055572509765625,-0.9523630142211914,-0.3835020959377289,18.75,0.0,2.7712583541870117,-0.6662607192993164,-0.3835020959377289,23.5,0.0,2.8502941131591797,-0.7174015045166016,-0.3835020959377289,25.75,0.0,2.935051918029785,-0.8096694946289062,-0.3835020959377289,24.25,0.0,2.6879310607910156,-0.48923492431640625,-0.3835020959377289,16.0,,,,,,,,,,,,,,,,,,,,,,,,,,,,,,,,,,,,,,,,,,,,,
0.0,-1.401298464324817e-45,2.827694892883301,-0.7380445599555969,-7.006492321624085e-45,-0.6707575917243958,-0.6899534463882446,-1.2611686178923354e-44,-0.6612328290939331,-0.37574461102485657,0.0,2.803802490234375,-1.7577409744262695,-1.5340083837509155,13.0,0.0,2.9665231704711914,-1.7366409301757812,-0.19175104796886444,13.25,0.0,2.717256546020508,-1.0231733322143555,-1.1505062878131866,16.75,0.0,2.631068229675293,-0.836491584777832,-0.3835020959377289,17.5,0.0,2.9311180114746094,-0.9480714797973633,-1.1505062878131866,14.0,0.0,2.558469772338867,-0.26607513427734375,-0.5752531439065933,16.25,0.0,2.450108528137207,-0.20313262939453125,-0.3835020959377289,15.5,,,,,,,,,,,,,,,,,,,,,,,,,,,,,,,,,,,,,,,,
0.0,-1.401298464324817e-45,2.7168233394622803,-0.8364371061325073,-4.203895392974451e-45,-0.8714229464530945,-0.7387144565582275,-1.1210387714598537e-44,-0.8790861964225769,-0.3485894799232483,0.0,2.924680709838867,-1.4548301696777344,-0.7670041918754578,17.0,0.0,3.068089485168457,-1.4462471008300781,-1.5340083837509155,14.5,0.0,2.8270483016967773,-1.273512840270996,-0.7670041918754578,15.5,0.0,2.5681257247924805,-0.8654594421386719,-1.1505062878131866,21.75,0.0,2.706170082092285,-0.9763240814208984,-0.7670041918754578,19.0,0.0,2.410769462585449,-0.6769895553588867,-0.9587552398443222,19.0,0.0,2.4858713150024414,-0.7402896881103516,-0.9587552398443222,22.25,,,,,,,,,,,,,,,,,,,,,,,,,,,,,,,,,,,,,,,,
0.0,-1.401298464324817e-45,2.612112045288086,-1.001896619796753,-7.006492321624085e-45,-1.0019233226776123,-0.9265866875648499,-1.2611686178923354e-44,-0.9349109530448914,-0.4777423143386841,0.0,2.737283706665039,-1.5610456466674805,-1.1505062878131866,18.25,0.0,2.5795698165893555,-1.3886690139770508,-1.1505062878131866,18.0,0.0,2.8960704803466797,-1.5571117401123047,-0.19175104796886444,20.25,0.0,3.0230283737182617,-1.5521049499511719,-0.19175104796886444,18.5,0.0,3.140687942504883,-1.6350746154785156,-0.5752531439065933,14.0,0.0,2.3342370986938477,-0.9151697158813477,-0.5752531439065933,24.5,0.0,2.274155616760254,-0.7005929946899414,-0.5752531439065933,18.5,0.0,2.2906064987182617,-0.8357763290405273,-0.5752531439065933,25.0,0.0,2.496957778930664,-0.9251832962036133,-0.7670041918754578,20.25,0.0,2.2802352905273438,-0.8540153503417969,0.0,22.25,0.0,3.1528472900390625,-0.9906291961669922,0.0,22.0,0.0,3.0916929244995117,-0.582575798034668,0.0,20.75,,,,,,,,,,,,,,,
0.0,-1.401298464324817e-45,2.491865634918213,-1.150668978691101,-8.407790785948902e-45,-1.1473602056503296,-1.0553066730499268,-1.2611686178923354e-44,-1.0111805200576782,-0.5353384017944336,0.0,2.2308826446533203,-1.209855079650879,-0.7670041918754578,23.25,0.0,2.5398731231689453,-1.5259981155395508,-1.72575943171978,17.75,0.0,2.725839614868164,-1.5753507614135742,-1.342257335782051,19.25,0.0,2.110004425048828,-0.9670257568359375,-0.7670041918754578,19.25,0.0,2.205491065979004,-1.0017156600952148,-0.7670041918754578,22.75,0.0,2.410769462585449,-1.2341737747192383,-0.7670041918754578,20.25,0.0,2.876758575439453,-1.553177833557129,0.19175104796886444,20.0,0.0,2.9833316802978516,-1.5674829483032227,0.19175104796886444,17.75,0.0,2.044558525085449,-1.107931137084961,0.0,20.25,0.0,2.239823341369629,-0.9609460830688477,0.0,24.25,0.0,3.1299591064453125,-1.0532140731811523,0.0,22.75,0.0,3.2172203063964844,-1.0854005813598633,0.0,21.5,0.0,2.896428108215332,-0.6133317947387695,0.0,22.0,0.0,3.0777454376220703,-0.6701946258544922,0.0,19.5,,,,,
0.0,-2.802596928649634e-45,2.3624002933502197,-1.216581106185913,-4.203895392974451e-45,-1.271203637123108,-1.015467882156372,-9.80908925027372e-45,-1.0533812046051025,-0.4336511492729187,0.0,2.2001266479492188,-1.341104507446289,-0.5752531439065933,19.5,0.0,2.309560775756836,-1.376509666442871,-2.3010125756263733,19.25,0.0,2.1167993545532227,-0.8243322372436523,-0.7670041918754578,18.0,0.0,2.221226692199707,-0.8611679077148438,-0.7670041918754578,18.5,0.0,1.931905746459961,-1.2177228927612305,0.0,22.5,0.0,2.3778676986694336,-0.9187459945678711,0.0,24.25,0.0,2.276301383972168,-0.8257627487182617,0.0,23.75,0.0,3.1163692474365234,-1.0650157928466797,0.0,21.25,0.0,3.2039880752563477,-1.063227653503418,0.0,19.75,0.0,3.31878662109375,-1.2055635452270508,0.0,12.75,0.0,2.875685691833496,-0.6694793701171875,0.0,20.75,0.0,3.050565719604492,-0.7910728454589844,0.0,18.5,,,,,,,,,,,,,,,
0.0,-2.802596928649634e-45,2.2223093509674072,-1.3082224130630493,-2.802596928649634e-45,-1.3769577741622925,-1.045750379562378,-7.006492321624085e-45,-1.0437716245651245,-0.4290291666984558,0.0,2.046346664428711,-1.1780261993408203,-0.5752531439065933,27.0,0.0,2.1075010299682617,-1.2638568878173828,-0.5752531439065933,24.0,0.0,2.195119857788086,-1.3904571533203125,-0.19175104796886444,16.25,0.0,2.039194107055664,-1.0138750076293945,-0.5752531439065933,25.5,0.0,1.970529556274414,-1.1562108993530273,0.0,26.5,0.0,2.112865447998047,-1.0732412338256836,0.0,27.25,0.0,2.3267269134521484,-0.9566545486450195,0.0,25.0,0.0,3.144979476928711,-1.204848289489746,0.0,17.75,0.0,3.0841827392578125,-1.0432004928588867,0.0,21.25,0.0,3.026247024536133,-0.8633136749267578,0.0,20.0,,,,,,,,,,,,,,,,,,,,,,,,,
0.0,-1.401298464324817e-45,3.210232973098755,-0.47271186113357544,-1.401298464324817e-44,-0.20380617678165436,-0.26908373832702637,-1.1210387714598537e-44,-0.22754719853401184,-0.16069424152374268,0.0,3.334522247314453,-1.0678768157958984,-0.3835020959377289,22.5,0.0,3.279447555541992,-0.8647441864013672,-0.19175104796886444,26.25,0.0,3.310561180114746,-0.9588003158569336,-0.19175104796886444,28.0,0.0,3.1453371047973633,-0.0833272933959961,-0.3835020959377289,19.75,0.0,2.901434898376465,0.18918514251708984,-0.5752531439065933,14.25,0.0,2.980470657348633,0.1806020736694336,-0.3835020959377289,19.5,0.0,2.959728240966797,0.13911724090576172,0.0,13.5,,,,,,,,,,,,,,,,,,,,,,,,,,,,,,,,,,,,,,,,
0.0,-1.401298464324817e-45,3.18100905418396,-0.522822380065918,-1.401298464324817e-44,-0.27789998054504395,-0.31540408730506897,-1.1210387714598537e-44,-0.32237744331359863,-0.17661713063716888,0.0,3.4450292587280273,-1.4963150024414062,-0.5752531439065933,15.25,0.0,3.3838748931884766,-1.1876821517944336,-0.19175104796886444,16.0,0.0,3.2039880752563477,-0.8096694946289062,-0.3835020959377289,23.5,0.0,3.30197811126709,-0.8493661880493164,-0.19175104796886444,22.0,0.0,3.1213760375976562,-0.21886825561523438,-0.5752531439065933,22.25,0.0,2.9082298278808594,0.08153915405273438,-0.5752531439065933,14.25,0.0,3.0126571655273438,0.013232231140136719,-0.5752531439065933,20.5,0.0,3.2050609588623047,-0.5793571472167969,0.0,26.75,0.0,2.9615163803100586,0.08547306060791016,0.0,16.25,,,,,,,,,,,,,,,,,,,,,,,,,,,,,,
0.0,-1.401298464324817e-45,3.1382415294647217,-0.512722373008728,-1.2611686178923354e-44,-0.36077025532722473,-0.25281861424446106,-9.80908925027372e-45,-0.40955397486686707,-0.10025694966316223,0.0,3.1828880310058594,-1.7580986022949219,-0.19175104796886444,19.0,0.0,3.2007694244384766,-2.023458480834961,-0.19175104796886444,18.75,0.0,3.4307241439819336,-2.111077308654785,-0.19175104796886444,15.0,0.0,3.2858848571777344,-0.9859800338745117,-0.19175104796886444,21.5,0.0,3.2401084899902344,-0.8407831192016602,-0.7670041918754578,23.0,0.0,3.153204917907715,-0.3107786178588867,-0.7670041918754578,18.0,0.0,2.944350242614746,0.05829334259033203,-0.5752531439065933,18.0,0.0,2.8231143951416016,0.1423358917236328,-0.5752531439065933,16.0,0.0,3.213644027709961,-0.6372928619384766,0.0,26.25,0.0,2.925395965576172,0.0940561294555664,0.0,15.25,,,,,,,,,,,,,,,,,,,,,,,,,
0.0,-1.401298464324817e-45,3.0892279148101807,-0.5111792683601379,-1.1210387714598537e-44,-0.45051607489585876,-0.20877715945243835,-8.407790785948902e-45,-0.4967764616012573,-0.045703694224357605,0.0,3.363490104675293,-1.7852783203125,-0.5752531439065933,13.75,0.0,3.554821014404297,-1.8950700759887695,-0.7670041918754578,12.75,0.0,3.119230270385742,-0.7381439208984375,-0.5752531439065933,25.25,0.0,3.1936168670654297,-0.8339881896972656,-0.5752531439065933,28.5,0.0,3.242969512939453,-0.8718967437744141,-0.5752531439065933,23.0,0.0,3.4078359603881836,-0.8178949356079102,-0.5752531439065933,15.0,0.0,2.7344226837158203,0.07259845733642578,-0.7670041918754578,13.0,0.0,2.8481483459472656,0.0171661376953125,-0.5752531439065933,20.75,0.0,2.9511451721191406,-0.043272972106933594,-0.5752531439065933,23.0,0.0,2.914309501647949,0.06687641143798828,0.0,17.75,,,,,,,,,,,,,,,,,,,,,,,,,
0.0,-1.401298464324817e-45,3.0395891666412354,-0.5363581776618958,-1.1210387714598537e-44,-0.5094924569129944,-0.2188769429922104,-7.006492321624085e-45,-0.5128006339073181,-0.04876289144158363,0.0,3.2018423080444336,-1.948714256286621,-0.7670041918754578,14.5,0.0,3.205418586730957,-1.6508102416992188,-0.7670041918754578,17.25,0.0,3.178238868713379,-1.146554946899414,-0.7670041918754578,17.75,0.0,3.0673742294311523,-0.5865097045898438,-0.3835020959377289,26.5,0.0,3.1424760818481445,-0.6437301635742188,-0.3835020959377289,23.25,0.0,2.957940101623535,-0.3218650817871094,-0.3835020959377289,24.25,0.0,2.698659896850586,-0.001430511474609375,-0.5752531439065933,19.0,0.0,2.802729606628418,-0.03147125244140625,-0.3835020959377289,23.25,0.0,3.1828880310058594,-0.7134675979614258,0.0,27.25,0.0,3.1360387802124023,-0.34046173095703125,0.0,28.0,,,,,,,,,,,,,,,,,,,,,,,,,
0.0,-1.401298464324817e-45,2.979525089263916,-0.6619012951850891,-1.2611686178923354e-44,-0.6027312874794006,-0.39347779750823975,-8.407790785948902e-45,-0.5847150683403015,-0.18638673424720764,0.0,3.3087730407714844,-1.3689994812011719,-0.9587552398443222,14.5,0.0,2.920389175415039,-0.8829832077026367,-0.5752531439065933,23.0,0.0,2.970457077026367,-0.925898551940918,-0.5752531439065933,26.25,0.0,3.0444860458374023,-1.0142326354980469,-0.5752531439065933,22.75,0.0,3.192901611328125,-1.147627830505371,-0.9587552398443222,17.5,0.0,2.8595924377441406,-0.5725622177124023,-0.5752531439065933,14.25,0.0,3.2579898834228516,-1.0546445846557617,0.0,22.75,0.0,3.361344337463379,-1.2470483779907227,0.0,19.75,0.0,3.1882524490356445,-0.8093118667602539,0.0,27.0,0.0,3.132462501525879,-0.35011768341064453,0.0,26.5,,,,,,,,,,,,,,,,,,,,,,,,,
0.0,-1.401298464324817e-45,2.8756518363952637,-0.7234225869178772,-9.80908925027372e-45,-0.7956947088241577,-0.42172062397003174,-8.407790785948902e-45,-0.800967812538147,-0.16526779532432556,0.0,2.955794334411621,-1.3740062713623047,-1.342257335782051,18.0,0.0,3.0080080032348633,-1.546025276184082,-1.342257335782051,14.75,0.0,2.9414892196655273,-0.9284019470214844,-1.1505062878131866,20.25,0.0,2.810955047607422,-0.8096694946289062,-1.1505062878131866,21.25,0.0,2.7219057083129883,-0.5121231079101562,-0.9587552398443222,20.5,0.0,2.6285648345947266,-0.36513805389404297,-0.9587552398443222,18.75,0.0,3.350973129272461,-1.2563467025756836,0.0,20.0,0.0,3.246903419494629,-1.0896921157836914,0.0,22.0,0.0,3.186821937561035,-0.8500814437866211,0.0,26.25,0.0,3.1267404556274414,-0.3876686096191406,0.0,25.5,,,,,,,,,,,,,,,,,,,,,,,,,
0.0,-1.401298464324817e-45,2.765066146850586,-0.8592861294746399,-9.80908925027372e-45,-0.9571000337600708,-0.58339524269104,-8.407790785948902e-45,-0.9201616644859314,-0.27496376633644104,0.0,3.149271011352539,-1.708388328552246,-1.5340083837509155,12.5,0.0,2.880692481994629,-1.4494657516479492,-0.3835020959377289,16.5,0.0,3.033757209777832,-1.581430435180664,-1.5340083837509155,14.75,0.0,2.8477907180786133,-1.112222671508789,-0.3835020959377289,20.0,0.0,2.647876739501953,-0.8554458618164062,-1.1505062878131866,22.25,0.0,2.761960029602051,-0.9816884994506836,-0.3835020959377289,23.25,0.0,2.3893117904663086,-0.6405115127563477,-1.1505062878131866,17.0,0.0,2.518773078918457,-0.7295608520507812,-1.1505062878131866,20.0,0.0,3.187894821166992,-0.84686279296875,0.0,23.25,0.0,3.104567527770996,-0.5679130554199219,0.0,24.5,,,,,,,,,,,,,,,,,,,,,,,,,
0.0,-1.401298464324817e-45,2.6375772953033447,-1.0381709337234497,-9.80908925027372e-45,-1.0625381469726562,-0.8419235348701477,-5.605193857299268e-45,-0.884498655796051,-0.4996527433395386,0.0,2.0177364349365234,-1.2198686599731445,-0.19175104796886444,16.75,0.0,2.560257911682129,-1.3407468795776367,-0.19175104796886444,19.75,0.0,2.702951431274414,-1.4344453811645508,-0.3835020959377289,17.75,0.0,2.813100814819336,-1.5134811401367188,-0.3835020959377289,13.5,0.0,2.295970916748047,-0.9613037109375,-0.5752531439065933,23.75,0.0,2.3821592330932617,-0.9616613388061523,-0.5752531439065933,26.5,0.0,2.450108528137207,-1.0957717895507812,-0.5752531439065933,24.0,0.0,3.0748844146728516,-0.6480216979980469,0.0,24.0,,,,,,,,,,,,,,,,,,,,,,,,,,,,,,,,,,,
0.0,-1.401298464324817e-45,2.5054423809051514,-1.1950514316558838,-8.407790785948902e-45,-1.1903468370437622,-1.0176821947097778,-4.203895392974451e-45,-0.9211606383323669,-0.6122167706489563,0.0,2.388596534729004,-1.2938976287841797,-1.5340083837509155,19.25,0.0,2.5420188903808594,-1.4183521270751953,-1.5340083837509155,15.75,0.0,2.6911497116088867,-1.5506744384765625,-0.3835020959377289,16.0,0.0,2.7894973754882812,-1.6576051712036133,0.19175104796886444,15.5,0.0,2.8635263442993164,-1.765608787536621,0.19175104796886444,12.25,0.0,2.086758613586426,-1.010298728942871,-0.3835020959377289,17.75,0.0,2.16829776763916,-1.0385513305664062,-0.3835020959377289,21.0,0.0,2.2788047790527344,-1.1229515075683594,-0.7670041918754578,20.0,0.0,1.8897056579589844,-1.2871026992797852,0.0,21.5,0.0,2.190828323364258,-1.0263919830322266,0.0,22.5,0.0,3.0312538146972656,-0.8676052093505859,0.0,18.75,,,,,,,,,,,,,,,,,,,,
0.0,-1.401298464324817e-45,2.378237724304199,-1.248410940170288,-4.203895392974451e-45,-1.2854723930358887,-0.9815008044242859,-1.401298464324817e-45,-0.9296644926071167,-0.5187093019485474,0.0,2.5452375411987305,-1.6665458679199219,-0.19175104796886444,13.5,0.0,2.4726390838623047,-1.4820098876953125,-0.9587552398443222,14.25,0.0,2.2197961807250977,-1.0546445846557617,-0.9587552398443222,26.0,0.0,2.3903846740722656,-1.089334487915039,-0.19175104796886444,19.25,0.0,2.155780792236328,-0.9237527847290039,-0.9587552398443222,25.25,0.0,2.1740198135375977,-0.98419189453125,-0.9587552398443222,28.75,0.0,2.007007598876953,-1.1594295501708984,0.0,23.25,0.0,3.0115842819213867,-0.9080171585083008,0.0,19.75,,,,,,,,,,,,,,,,,,,,,,,,,,,,,,,,,,,
0.0,-1.401298464324817e-45,2.2542724609375,-1.3436856269836426,-4.203895392974451e-45,-1.3552188873291016,-1.0314650535583496,-1.401298464324817e-45,-0.8969488143920898,-0.5252461433410645,0.0,2.3049116134643555,-1.6340017318725586,-0.5752531439065933,19.25,0.0,2.4586915969848633,-1.5639066696166992,-0.5752531439065933,19.0,0.0,2.5981664657592773,-1.4913082122802734,-0.5752531439065933,15.75,0.0,1.9859075546264648,-1.0532140731811523,-0.5752531439065933,20.25,0.0,2.0509958267211914,-1.0936260223388672,-0.5752531439065933,20.75,0.0,2.3031234741210938,-1.0710954666137695,-0.5752531439065933,15.25,0.0,1.9515752792358398,-1.2238025665283203,0.0,23.75,,,,,,,,,,,,,,,,,,,,,,,,,,,,,,,,,,,,,,,,
0.0,-1.401298464324817e-45,2.1330087184906006,-1.3896894454956055,0.0,-1.3958665132522583,-0.9836139678955078,2.802596928649634e-45,-0.8385154008865356,-0.4414719045162201,0.0,2.121448516845703,-1.3704299926757812,-0.7670041918754578,18.5,0.0,2.27200984954834,-1.4880895614624023,-0.7670041918754578,15.25,0.0,2.0341873168945312,-1.118302345275879,-0.19175104796886444,20.5,0.0,2.493739128112793,-1.4476776123046875,-0.9587552398443222,14.75,0.0,1.8482208251953125,-0.9934902191162109,-0.5752531439065933,13.75,0.0,1.936197280883789,-0.9884834289550781,-0.5752531439065933,23.0,,,,,,,,,,,,,,,,,,,,,,,,,,,,,,,,,,,,,,,,,,,,,
0.0,-4.203895392974451e-45,2.0375444889068604,-1.4800325632095337,-1.401298464324817e-45,-1.354814887046814,-1.0656399726867676,1.401298464324817e-45,-0.6591729521751404,-0.5347743034362793,0.0,1.8135309219360352,-1.267075538635254,-0.19175104796886444,15.75,0.0,2.3006200790405273,-1.2677907943725586,0.19175104796886444,16.75,0.0,2.1747350692749023,-1.1733770370483398,0.19175104796886444,17.0,0.0,2.2881031036376953,-1.192331314086914,0.19175104796886444,21.75,0.0,1.9397735595703125,-1.1905431747436523,0.0,24.75,,,,,,,,,,,,,,,,,,,,,,,,,,,,,,,,,,,,,,,,,,,,,,,,,,
0.0,-4.203895392974451e-45,1.9494342803955078,-1.531902551651001,0.0,-1.3144657611846924,-1.0290933847427368,1.401298464324817e-45,-0.5410777926445007,-0.46850669384002686,0.0,1.9154548645019531,-1.2545585632324219,0.19175104796886444,18.5,0.0,2.0477771759033203,-1.2774467468261719,-0.9587552398443222,21.25,0.0,2.129673957824707,-1.3271570205688477,-0.19175104796886444,21.0,0.0,2.214789390563965,-1.3600587844848633,-0.19175104796886444,15.0,0.0,2.847433090209961,-1.5295743942260742,0.0,12.75,,,,,,,,,,,,,,,,,,,,,,,,,,,,,,,,,,,,,,,,,,,,,,,,,,
0.0,-2.802596928649634e-45,1.909766435623169,-1.5294660329818726,2.802596928649634e-45,-1.1738238334655762,-0.9049190282821655,4.203895392974451e-45,-0.33191782236099243,-0.3386020064353943,0.0,1.763463020324707,-1.120448112487793,-0.19175104796886444,14.0,0.0,1.9115209579467773,-1.1483430862426758,-0.19175104796886444,17.75,0.0,2.0813941955566406,-1.188039779663086,-0.3835020959377289,19.5,0.0,2.189040184020996,-1.2270212173461914,-0.3835020959377289,19.25,0.0,2.213716506958008,-1.3557672500610352,-0.19175104796886444,13.5,,,,,,,,,,,,,,,,,,,,,,,,,,,,,,,,,,,,,,,,,,,,,,,,,,
0.0,-2.802596928649634e-45,1.8617967367172241,-1.5783230066299438,4.203895392974451e-45,-1.0606297254562378,-0.8896269798278809,4.203895392974451e-45,-0.16692015528678894,-0.32579505443573,0.0,2.143979072570801,-1.1451244354248047,0.19175104796886444,16.0,0.0,2.210855484008789,-1.1633634567260742,0.19175104796886444,16.25,,,,,,,,,,,,,,,,,,,,,,,,,,,,,,,,,,,,,,,,,,,,,,,,,,,,,,,,,,,,,,,,,
