tid,posx,posy,posz,velx,vely,velz,accx,accy,accz,pointx1,pointy1,pointz1,doppler1,snr1,pointx2,pointy2,pointz2,doppler2,snr2,pointx3,pointy3,pointz3,doppler3,snr3,pointx4,pointy4,pointz4,doppler4,snr4,pointx5,pointy5,pointz5,doppler5,snr5,pointx6,pointy6,pointz6,doppler6,snr6,pointx7,pointy7,pointz7,doppler7,snr7,pointx8,pointy8,pointz8,doppler8,snr8,pointx9,pointy9,pointz9,doppler9,snr9,pointx10,pointy10,pointz10,doppler10,snr10,pointx11,pointy11,pointz11,doppler11,snr11,pointx12,pointy12,pointz12,doppler12,snr12,pointx13,pointy13,pointz13,doppler13,snr13,pointx14,pointy14,pointz14,doppler14,snr14,pointx15,pointy15,pointz15,doppler15,snr15,pointx16,pointy16,pointz16,doppler16,snr16,pointx17,pointy17,pointz17,doppler17,snr17
0.0,-0.0129939503967762,3.0416855812072754,-0.3521798253059387,-0.04715821519494057,-0.22078344225883484,0.20999789237976074,0.03240782767534256,0.017266619950532913,-0.0006449967622756958,0.0,3.08382511138916,-0.9949207305908203,-0.19175104796886444,23.75,0.0,3.1528472900390625,-1.1014938354492188,-0.19175104796886444,18.5,0.0,2.9718875885009766,-0.7503032684326172,-0.19175104796886444,25.0,0.0,2.8356313705444336,-0.18417835235595703,-0.3835020959377289,29.0,0.0,2.747654914855957,0.0035762786865234375,-0.3835020959377289,25.25,0.0,2.7794837951660156,-0.04076957702636719,-0.3835020959377289,31.0,0.0,3.043055534362793,-0.5629062652587891,0.0,25.25,,,,,,,,,,,,,,,,,,,,,,,,,,,,,,,,,,,,,,,,,,,,,,,,,,
0.0,-0.011705860495567322,2.9945461750030518,-0.29446595907211304,-0.0315682478249073,-0.2649764120578766,0.28179681301116943,0.044918887317180634,-0.03458037227392197,0.07182915508747101,0.0,3.092050552368164,-1.4605522155761719,-0.3835020959377289,14.25,0.0,3.0072927474975586,-1.2871026992797852,-0.3835020959377289,13.5,0.0,2.9039382934570312,-0.596165657043457,-0.19175104796886444,17.75,0.0,2.784132957458496,-0.20420551300048828,-0.3835020959377289,25.75,0.0,2.698659896850586,0.04076957702636719,-0.3835020959377289,27.5,0.0,2.7254819869995117,0.008940696716308594,-0.3835020959377289,30.25,0.0,2.614259719848633,0.0947713851928711,-0.3835020959377289,15.25,0.0,3.019094467163086,-0.6394386291503906,0.0,25.5,,,,,,,,,,,,,,,,,,,,,,,,,,,,,,,,,,,,,,,,,,,,,
0.0,-0.010165206156671047,2.9455130100250244,-0.33943724632263184,-0.01709774322807789,-0.3397323489189148,0.13459797203540802,0.055020589381456375,-0.14066414535045624,-0.08385185897350311,0.0,3.0280351638793945,-1.4333724975585938,-0.5752531439065933,19.0,0.0,3.051638603210449,-1.1647939682006836,-0.5752531439065933,23.25,0.0,3.011941909790039,-0.9126663208007812,-0.5752531439065933,22.75,0.0,2.9096603393554688,-0.286102294921875,-0.3835020959377289,21.75,0.0,2.785205841064453,-0.13196468353271484,-0.5752531439065933,21.75,0.0,2.7025938034057617,0.02467632293701172,-0.5752531439065933,18.0,0.0,3.5963058471679688,-1.0739564895629883,0.0,12.5,,,,,,,,,,,,,,,,,,,,,,,,,,,,,,,,,,,,,,,,,,,,,,,,,,
0.0,-0.007600028533488512,2.883690118789673,-0.3215559720993042,-0.0026469891890883446,-0.4222756624221802,0.13507533073425293,0.06376854330301285,-0.23698076605796814,-0.07310863584280014,0.0,3.0040740966796875,-1.043558120727539,-0.5752531439065933,13.5,0.0,2.949357032775879,-0.8414983749389648,-0.5752531439065933,19.25,0.0,2.8352737426757812,-0.45311450958251953,-0.5752531439065933,19.75,0.0,2.693653106689453,-0.2503395080566406,-0.5752531439065933,22.75,0.0,2.54058837890625,0.20706653594970703,-0.5752531439065933,17.5,0.0,2.6063919067382812,0.08726119995117188,-0.5752531439065933,22.75,0.0,2.708315849304199,-0.07867813110351562,0.0,26.5,,,,,,,,,,,,,,,,,,,,,,,,,,,,,,,,,,,,,,,,,,,,,,,,,,
0.0,-0.005315070040524006,2.79607892036438,-0.44147902727127075,0.008945228531956673,-0.570965588092804,-0.14422401785850525,0.0687747374176979,-0.4130373001098633,-0.32909098267555237,0.0,2.8302669525146484,-1.1980533599853516,-0.7670041918754578,21.25,0.0,2.9976367950439453,-1.1326074600219727,-0.7670041918754578,16.0,0.0,2.730131149291992,-1.0110139846801758,-0.7670041918754578,22.5,0.0,2.533078193664551,-0.26535987854003906,-0.7670041918754578,21.75,0.0,2.5606155395507812,-0.2968311309814453,-0.9587552398443222,26.5,0.0,2.6339292526245117,-0.4152059555053711,-0.7670041918754578,23.25,,,,,,,,,,,,,,,,,,,,,,,,,,,,,,,,,,,,,,,,,,,,,,,,,,,,,,,
0.0,-0.003563191741704941,2.680783987045288,-0.44272664189338684,0.017777301371097565,-0.7680982351303101,-0.13320674002170563,0.07083760201931,-0.6452442407608032,-0.2711406648159027,0.0,2.6618242263793945,-1.877903938293457,-0.3835020959377289,12.75,0.0,2.691507339477539,-0.9598731994628906,-0.9587552398443222,20.25,0.0,2.8384923934936523,-1.0199546813964844,-1.1505062878131866,14.0,0.0,2.5620460510253906,-0.6927251815795898,-1.1505062878131866,23.25,0.0,2.463698387145996,-0.3361701965332031,-1.1505062878131866,28.5,0.0,2.384305000305176,-0.125885009765625,-1.1505062878131866,23.0,0.0,2.4204254150390625,-0.22172927856445312,-1.1505062878131866,29.5,,,,,,,,,,,,,,,,,,,,,,,,,,,,,,,,,,,,,,,,,,,,,,,,,,
0.0,-0.0013182838447391987,2.559938669204712,-0.6558322906494141,0.025145206600427628,-0.9464077949523926,-0.5488251447677612,0.07109922170639038,-0.7973421812057495,-0.6162363290786743,0.0,2.9164552688598633,-1.3532638549804688,-0.19175104796886444,15.5,0.0,2.096414566040039,-0.9226799011230469,-1.1505062878131866,24.75,0.0,2.570986747741699,-0.9970664978027344,-0.5752531439065933,24.0,0.0,2.666473388671875,-1.111149787902832,-0.5752531439065933,19.0,0.0,2.7894973754882812,-1.227736473083496,-1.342257335782051,17.0,0.0,2.2662878036499023,-0.6684064865112305,-1.342257335782051,25.25,0.0,2.445101737976074,-0.6694793701171875,-1.342257335782051,22.5,0.0,3.0688047409057617,-1.0800361633300781,0.0,21.5,,,,,,,,,,,,,,,,,,,,,,,,,,,,,,,,,,,,,,,,,,,,,
0.0,0.0006121436017565429,2.4365241527557373,-0.8998687863349915,0.03034636750817299,-1.1100441217422485,-0.9664030075073242,0.06954172998666763,-0.9107872843742371,-0.9246835708618164,0.0,2.616763114929199,-1.525282859802246,-0.3835020959377289,17.5,0.0,2.7941465377807617,-1.6121864318847656,-1.72575943171978,16.0,0.0,2.313852310180664,-1.1866092681884766,-0.3835020959377289,23.0,0.0,2.455472946166992,-1.3039112091064453,-0.3835020959377289,23.0,0.0,2.5502443313598633,-1.3396739959716797,-0.3835020959377289,21.25,0.0,3.0187368392944336,-1.536726951599121,-1.342257335782051,12.75,0.0,2.160787582397461,-0.9058713912963867,-1.1505062878131866,22.75,0.0,2.058863639831543,-0.7581710815429688,-1.1505062878131866,25.5,0.0,3.084897994995117,-1.3278722763061523,0.0,15.5,0.0,2.9332637786865234,-0.9226799011230469,0.0,19.5,,,,,,,,,,,,,,,,,,,,,,,,,,,,,,,,,,,
0.0,0.0025213558692485094,2.292560577392578,-1.0979688167572021,0.03456000238656998,-1.2669578790664673,-1.244665265083313,0.06744237244129181,-0.9893119931221008,-1.0841249227523804,0.0,2.031683921813965,-1.2388229370117188,0.19175104796886444,23.5,0.0,2.1779537200927734,-1.3289451599121094,-1.9175104796886444,21.75,0.0,2.323150634765625,-1.4237165451049805,-0.5752531439065933,18.0,0.0,2.428293228149414,-1.5259981155395508,-0.5752531439065933,17.75,0.0,2.5795698165893555,-1.5606880187988281,-0.5752531439065933,14.0,0.0,1.9494295120239258,-1.0474920272827148,-0.7670041918754578,23.0,0.0,2.847433090209961,-1.1719465255737305,0.0,18.25,,,,,,,,,,,,,,,,,,,,,,,,,,,,,,,,,,,,,,,,,,,,,,,,,,
0.0,0.004488429985940456,2.150310516357422,-1.223312258720398,0.038052499294281006,-1.3749773502349854,-1.3488080501556396,0.06505799293518066,-0.9935564398765564,-1.0827594995498657,0.0,1.7877817153930664,-0.9806156158447266,-0.19175104796886444,16.0,0.0,1.875758171081543,-1.0807514190673828,-0.3835020959377289,22.0,0.0,2.067089080810547,-1.1769533157348633,-0.3835020959377289,22.0,0.0,2.199411392211914,-1.2398958206176758,-0.3835020959377289,20.75,0.0,2.2573471069335938,-1.3918876647949219,-1.342257335782051,14.5,0.0,2.9271841049194336,-1.3539791107177734,0.0,17.5,0.0,3.0241012573242188,-1.4934539794921875,0.0,13.0,0.0,2.8481483459472656,-1.1565685272216797,0.0,18.0,0.0,2.6324987411499023,-0.40841102600097656,0.0,24.0,,,,,,,,,,,,,,,,,,,,,,,,,,,,,,,,,,,,,,,,
0.0,0.006548908539116383,2.0062406063079834,-1.3568066358566284,0.04103098437190056,-1.4611790180206299,-1.4585965871810913,0.06258153170347214,-0.9662033319473267,-1.0959256887435913,0.0,1.7348527908325195,-1.1208057403564453,0.19175104796886444,14.25,0.0,1.7756223678588867,-1.2202262878417969,0.19175104796886444,20.25,0.0,1.9365549087524414,-1.3110637664794922,-0.5752531439065933,17.5,0.0,2.2122859954833984,-1.2359619140625,-0.5752531439065933,16.25,0.0,2.9064416885375977,-1.4122724533081055,0.0,16.5,0.0,2.81524658203125,-1.1894702911376953,0.0,17.0,0.0,3.1099319458007812,-1.3271570205688477,0.0,12.25,0.0,2.7251243591308594,-0.8829832077026367,0.0,19.5,,,,,,,,,,,,,,,,,,,,,,,,,,,,,,,,,,,,,,,,,,,,,
0.0,-0.001497860299423337,2.934913158416748,-0.5106209516525269,-0.004912559408694506,-0.5504072904586792,-0.4605809450149536,-0.003090841230005026,-0.28316426277160645,-0.5148636698722839,0.0,3.384232521057129,-1.3267993927001953,-0.3835020959377289,12.75,0.0,2.9822587966918945,-0.731348991394043,-0.3835020959377289,22.5,0.0,3.051638603210449,-0.9073019027709961,-0.3835020959377289,16.75,0.0,2.6003122329711914,-0.13947486877441406,-0.7670041918754578,16.75,0.0,2.6657581329345703,-0.14090538024902344,-0.5752531439065933,26.5,0.0,2.7065277099609375,-0.13840198516845703,-0.7670041918754578,27.5,0.0,2.830982208251953,-0.26106834411621094,-0.7670041918754578,23.0,0.0,2.9740333557128906,-0.17952919006347656,0.0,29.25,0.0,2.7065277099609375,-0.06473064422607422,0.0,22.0,0.0,2.826690673828125,-0.0032186508178710938,0.0,25.75,,,,,,,,,,,,,,,,,,,,,,,,,,,,,,,,,,,
0.0,-0.0014241037424653769,2.887068748474121,-0.5344293117523193,-0.00450930604711175,-0.5877028107643127,-0.4620414078235626,-0.002664507832378149,-0.31497618556022644,-0.46681907773017883,0.0,2.9754638671875,-0.9080171585083008,-0.5752531439065933,16.0,0.0,3.179311752319336,-0.9480714797973633,-0.5752531439065933,13.75,0.0,3.266572952270508,-1.1508464813232422,-0.3835020959377289,16.25,0.0,3.36456298828125,-1.2316703796386719,-0.3835020959377289,14.0,0.0,2.9039382934570312,-0.4159212112426758,-0.5752531439065933,17.5,0.0,2.7229785919189453,-0.1087188720703125,-0.7670041918754578,15.25,0.0,2.514481544494629,0.05042552947998047,-0.7670041918754578,16.0,0.0,2.5538206100463867,0.021457672119140625,-0.7670041918754578,18.75,0.0,3.152132034301758,-0.7663965225219727,0.0,23.75,0.0,3.0562877655029297,-0.423431396484375,0.0,28.5,0.0,2.9511451721191406,-0.23424625396728516,0.0,27.75,0.0,2.8063058853149414,-0.010371208190917969,0.0,25.25,,,,,,,,,,,,,,,,,,,,,,,,,
0.0,-0.0013490566052496433,2.796264410018921,-0.5564591884613037,-0.004094268195331097,-0.7076987028121948,-0.4494009017944336,-0.0022484194487333298,-0.4459242522716522,-0.4028756618499756,0.0,3.0956268310546875,-1.474142074584961,-0.9587552398443222,16.5,0.0,3.0298233032226562,-1.268148422241211,-0.9587552398443222,15.75,0.0,2.930760383605957,-0.8625984191894531,-0.7670041918754578,16.25,0.0,2.8177499771118164,-0.5460977554321289,-0.9587552398443222,21.75,0.0,2.5513172149658203,-0.24640560150146484,-0.7670041918754578,26.0,0.0,2.672553062438965,-0.3472566604614258,-0.9587552398443222,23.75,0.0,2.488374710083008,-0.1709461212158203,-0.7670041918754578,23.75,0.0,2.4068355560302734,-0.0743865966796875,-0.7670041918754578,13.75,0.0,3.107428550720215,-0.9909868240356445,0.0,20.75,0.0,3.027677536010742,-0.7392168045043945,0.0,24.25,0.0,2.894282341003418,-0.26357173919677734,0.0,25.25,0.0,2.7648210525512695,-0.07510185241699219,0.0,25.75,,,,,,,,,,,,,,,,,,,,,,,,,
0.0,-0.0013123690150678158,2.688076972961426,-0.6293771862983704,-0.003730502910912037,-0.849605917930603,-0.5228973627090454,-0.0018850484630092978,-0.5836432576179504,-0.4184335470199585,0.0,2.9611587524414062,-1.466989517211914,-0.9587552398443222,14.0,0.0,3.0291080474853516,-1.587510108947754,-1.1505062878131866,13.5,0.0,2.348184585571289,-0.7646083831787109,-0.9587552398443222,18.5,0.0,2.8063058853149414,-0.7756948471069336,-0.9587552398443222,14.5,0.0,2.351045608520508,-0.40018558502197266,-0.9587552398443222,22.25,0.0,2.6693344116210938,-0.42808055877685547,-0.9587552398443222,14.75,0.0,2.3488998413085938,-0.19741058349609375,-0.9587552398443222,17.25,0.0,3.025174140930176,-0.7535219192504883,0.0,21.5,0.0,2.8935670852661133,-0.3572702407836914,0.0,24.25,0.0,2.7533769607543945,-0.16772747039794922,0.0,25.5,,,,,,,,,,,,,,,,,,,,,,,,,,,,,,,,,,,
0.0,-0.0013468865072354674,2.5565078258514404,-0.7253912687301636,-0.0034656354691833258,-1.00190269947052,-0.6305043697357178,-0.0016035042935982347,-0.7001398205757141,-0.4658837914466858,0.0,2.730846405029297,-1.7834901809692383,-1.5340083837509155,12.75,0.0,2.2362470626831055,-0.7392168045043945,-0.9587552398443222,26.75,0.0,2.3120641708374023,-0.7749795913696289,-0.9587552398443222,22.0,0.0,2.4923086166381836,-0.825047492980957,-0.9587552398443222,15.75,0.0,2.2312402725219727,-0.6433725357055664,-0.9587552398443222,24.0,,,,,,,,,,,,,,,,,,,,,,,,,,,,,,,,,,,,,,,,,,,,,,,,,,,,,,,,,,,,
0.0,-0.0012134487042203546,2.423642873764038,-0.8778176307678223,-0.0029892311431467533,-1.1560108661651611,-0.819814920425415,-0.0012090683449059725,-0.8131885528564453,-0.5779783725738525,0.0,2.4443864822387695,-1.169443130493164,-1.9175104796886444,18.25,0.0,2.558469772338867,-1.3275146484375,-0.9587552398443222,12.25,0.0,2.75266170501709,-1.4576911926269531,-1.1505062878131866,12.75,0.0,2.8835535049438477,-1.5045404434204102,-1.1505062878131866,13.5,0.0,2.1725893020629883,-0.8418560028076172,-0.7670041918754578,20.5,0.0,2.314925193786621,-1.0471343994140625,-0.3835020959377289,18.5,0.0,2.1049976348876953,-0.7120370864868164,-0.7670041918754578,22.5,,,,,,,,,,,,,,,,,,,,,,,,,,,,,,,,,,,,,,,,,,,,,,,,,,
0.0,-0.0011852674651890993,2.2640562057495117,-1.0557446479797363,-0.00267215957865119,-1.3215161561965942,-1.039568305015564,-0.0009370641782879829,-0.9073667526245117,-0.7142478227615356,0.0,2.122163772583008,-1.454472541809082,-0.19175104796886444,19.0,0.0,2.386808395385742,-1.5828609466552734,-2.3010125756263733,14.0,0.0,1.9966363906860352,-1.1873245239257812,-0.19175104796886444,19.25,0.0,2.3145675659179688,-1.4619827270507812,-2.3010125756263733,17.75,0.0,1.942276954650879,-0.9891986846923828,-0.19175104796886444,23.0,0.0,3.0634403228759766,-1.4376640319824219,0.0,17.0,,,,,,,,,,,,,,,,,,,,,,,,,,,,,,,,,,,,,,,,,,,,,,,,,,,,,,,
0.0,-0.0011782479705289006,2.110766649246216,-1.2141354084014893,-0.0024020103737711906,-1.4387774467468262,-1.2086584568023682,-0.0007132180617190897,-0.927034854888916,-0.8056731820106506,0.0,1.981973648071289,-1.3303756713867188,-0.5752531439065933,20.75,0.0,2.0481348037719727,-1.4176368713378906,-0.9587552398443222,18.25,0.0,2.2301673889160156,-1.4780759811401367,-0.19175104796886444,12.25,0.0,1.9515752792358398,-1.1286735534667969,-0.19175104796886444,17.75,0.0,3.0562877655029297,-1.5059709548950195,0.0,15.0,,,,,,,,,,,,,,,,,,,,,,,,,,,,,,,,,,,,,,,,,,,,,,,,,,,,,,,,,,,,
0.0,-0.0011296224547550082,1.963305115699768,-1.3333702087402344,-0.0020960154943168163,-1.508790373802185,-1.298797607421875,-0.00048357449122704566,-0.8842319846153259,-0.832266628742218,0.0,1.9072294235229492,-1.2538433074951172,-0.5752531439065933,19.75,0.0,2.0366907119750977,-1.3371706008911133,-0.5752531439065933,14.25,0.0,1.7895698547363281,-1.0932683944702148,0.19175104796886444,16.5,0.0,1.8364191055297852,-1.1497735977172852,0.19175104796886444,22.75,,,,,,,,,,,,,,,,,,,,,,,,,,,,,,,,,,,,,,,,,,,,,,,,,,,,,,,,,,,,,,,,,
0.0,-0.0010492390720173717,1.8040010929107666,-1.4705390930175781,-0.0017667836509644985,-1.590279459953308,-1.4034441709518433,-0.00025326007744297385,-0.8634589314460754,-0.8657675981521606,0.0,1.6415119171142578,-1.2524127960205078,0.19175104796886444,16.75,0.0,1.6268491744995117,-1.383662223815918,-0.19175104796886444,20.0,0.0,1.7434358596801758,-1.484513282775879,-0.19175104796886444,16.25,0.0,2.0502805709838867,-1.408696174621582,-0.19175104796886444,12.75,,,,,,,,,,,,,,,,,,,,,,,,,,,,,,,,,,,,,,,,,,,,,,,,,,,,,,,,,,,,,,,,,
0.0,-0.0008985456079244614,1.7460196018218994,-1.5022969245910645,-0.001380051951855421,-1.4502344131469727,-1.337005853652954,-8.540577255189419e-06,-0.6088449954986572,-0.7768211364746094,0.0,1.7677545547485352,-1.1322498321533203,0.19175104796886444,25.25,0.0,1.726984977722168,-1.0896921157836914,0.19175104796886444,15.75,0.0,1.8017292022705078,-1.1394023895263672,0.19175104796886444,28.0,0.0,1.9294023513793945,-1.1014938354492188,0.19175104796886444,22.0,0.0,2.211928367614746,-0.9527206420898438,0.19175104796886444,13.0,0.0,1.7781257629394531,-1.1655092239379883,0.0,14.75,0.0,1.8714666366577148,-1.1576414108276367,0.0,30.5,0.0,2.991199493408203,-1.6179084777832031,0.0,13.5,0.0,2.993345260620117,-1.6193389892578125,0.0,13.5,,,,,,,,,,,,,,,,,,,,,,,,,,,,,,,,,,,,,,,,
0.0,-0.0008063919376581907,1.702089786529541,-1.5337659120559692,-0.0010908942203968763,-1.313998818397522,-1.2332358360290527,0.00016581865202169865,-0.4137153625488281,-0.6224067807197571,0.0,1.9748210906982422,-1.3883113861083984,-0.3835020959377289,13.75,0.0,1.7402172088623047,-1.0696649551391602,-0.19175104796886444,14.25,0.0,1.852869987487793,-1.0707378387451172,-0.19175104796886444,13.75,0.0,2.1750926971435547,-1.314997673034668,-0.19175104796886444,16.5,0.0,1.7813444137573242,-1.1562108993530273,0.0,15.75,0.0,1.8821954727172852,-1.1469125747680664,0.0,30.0,,,,,,,,,,,,,,,,,,,,,,,,,,,,,,,,,,,,,,,,,,,,,,,,,,,,,,,
0.0,-1.1589655514399055e-05,2.868262529373169,-0.47513115406036377,-0.00011211034143343568,-0.3369346559047699,-0.4711104929447174,-6.689948349958286e-05,-0.16392606496810913,-0.32258859276771545,0.0,2.8957128524780273,-0.9108781814575195,-0.3835020959377289,21.75,0.0,2.9643774032592773,-1.100778579711914,-0.3835020959377289,16.0,0.0,2.8409957885742188,-0.40161609649658203,-0.3835020959377289,24.5,0.0,2.7816295623779297,-0.1684427261352539,-0.3835020959377289,25.5,0.0,2.72977352142334,-0.059723854064941406,-0.3835020959377289,20.25,,,,,,,,,,,,,,,,,,,,,,,,,,,,,,,,,,,,,,,,,,,,,,,,,,,,,,,,,,,,
0.0,-1.6805282939458266e-05,2.825561761856079,-0.5598841905593872,-0.00011090873886132613,-0.4080345332622528,-0.5533722639083862,-6.202187796588987e-05,-0.2524687647819519,-0.3562484681606293,0.0,3.073453903198242,-1.2831687927246094,-0.9587552398443222,12.5,0.0,2.9304027557373047,-0.9677410125732422,-0.5752531439065933,25.25,0.0,3.0133724212646484,-1.0231733322143555,-0.5752531439065933,20.5,0.0,2.8388500213623047,-0.6000995635986328,-0.5752531439065933,24.25,0.0,2.743363380432129,-0.31578540802001953,-0.3835020959377289,26.0,0.0,2.7022361755371094,-0.25713443756103516,-0.3835020959377289,22.25,,,,,,,,,,,,,,,,,,,,,,,,,,,,,,,,,,,,,,,,,,,,,,,,,,,,,,,
0.0,-1.9755305402213708e-05,2.762162923812866,-0.6431642770767212,-0.00010635478975018486,-0.5191289186477661,-0.6167321801185608,-5.529695772565901e-05,-0.3813222050666809,-0.3659406304359436,0.0,2.8821229934692383,-1.4215707778930664,-0.9587552398443222,16.25,0.0,2.705097198486328,-1.0635852813720703,-0.5752531439065933,24.0,0.0,2.7923583984375,-1.214146614074707,-0.9587552398443222,21.75,0.0,3.1499862670898438,-1.256704330444336,-0.3835020959377289,13.25,0.0,2.6886463165283203,-0.4820823669433594,-0.5752531439065933,24.75,0.0,2.6224851608276367,-0.2503395080566406,-0.5752531439065933,23.75,0.0,2.550959587097168,0.05221366882324219,-0.5752531439065933,17.75,,,,,,,,,,,,,,,,,,,,,,,,,,,,,,,,,,,,,,,,,,,,,,,,,,
0.0,-2.2701458874507807e-05,2.6862869262695312,-0.7067857980728149,-0.00010151644528377801,-0.6429423689842224,-0.6327542066574097,-4.8730700655141845e-05,-0.5112744569778442,-0.3313714861869812,0.0,1.759171485900879,-1.4494657516479492,-0.19175104796886444,16.75,0.0,2.749800682067871,-1.113295555114746,-0.5752531439065933,25.75,0.0,2.810955047607422,-1.1565685272216797,-0.7670041918754578,23.0,0.0,2.8924942016601562,-1.2420415878295898,-0.7670041918754578,17.5,0.0,2.6543140411376953,-0.7181167602539062,-0.5752531439065933,23.25,0.0,2.4955272674560547,-0.3529787063598633,-1.1505062878131866,22.0,0.0,2.549886703491211,-0.29075145721435547,-1.1505062878131866,26.25,0.0,1.7098188400268555,-1.4594793319702148,0.0,20.5,,,,,,,,,,,,,,,,,,,,,,,,,,,,,,,,,,,,,,,,,,,,,
0.0,-2.3004460672382265e-05,2.5705549716949463,-0.75941401720047,-9.284073894377798e-05,-0.8560336828231812,-0.6052113175392151,-4.000412445748225e-05,-0.7490584850311279,-0.24581170082092285,0.0,2.7730464935302734,-1.6100406646728516,-0.19175104796886444,13.0,0.0,2.701878547668457,-1.2449026107788086,-1.342257335782051,17.5,0.0,2.5763511657714844,-0.9863376617431641,-1.342257335782051,28.0,0.0,2.6285648345947266,-1.0832548141479492,-1.342257335782051,23.0,0.0,2.510190010070801,-0.7020235061645508,-1.1505062878131866,26.5,0.0,2.283811569213867,-0.4094839096069336,-1.5340083837509155,21.25,0.0,2.4061203002929688,-0.3508329391479492,-1.1505062878131866,24.75,0.0,3.166079521179199,-1.0950565338134766,0.0,19.0,,,,,,,,,,,,,,,,,,,,,,,,,,,,,,,,,,,,,,,,,,,,,
0.0,-2.361019141972065e-05,2.4727108478546143,-0.9491038918495178,-8.535192318959162e-05,-0.9239053130149841,-0.8763317465782166,-3.284439299022779e-05,-0.709950864315033,-0.47403332591056824,0.0,2.589583396911621,-1.600027084350586,-1.342257335782051,18.75,0.0,2.775907516479492,-1.6003847122192383,0.19175104796886444,16.5,0.0,2.541661262512207,-1.335740089416504,-1.342257335782051,20.75,0.0,2.1539926528930664,-0.8211135864257812,-0.19175104796886444,25.0,0.0,2.2101402282714844,-0.9648799896240234,-0.19175104796886444,28.25,0.0,2.3267269134521484,-1.0213851928710938,0.19175104796886444,27.75,0.0,2.466917037963867,-1.1154413223266602,0.19175104796886444,24.75,,,,,,,,,,,,,,,,,,,,,,,,,,,,,,,,,,,,,,,,,,,,,,,,,,
0.0,-2.402564132353291e-05,2.3768486976623535,-1.1704574823379517,-7.787012873450294e-05,-0.949543833732605,-1.204432725906372,-2.6163059374084696e-05,-0.6058551669120789,-0.7566800117492676,0.0,1.900792121887207,-1.1179447174072266,0.19175104796886444,23.25,0.0,2.283811569213867,-1.2534856796264648,0.7670041918754578,25.25,0.0,2.375006675720215,-1.3579130172729492,-0.3835020959377289,22.0,0.0,2.4776458740234375,-1.4233589172363281,-0.3835020959377289,21.75,0.0,2.5720596313476562,-1.5270709991455078,-0.3835020959377289,17.25,0.0,2.7784109115600586,-1.5943050384521484,0.19175104796886444,12.25,0.0,2.133607864379883,-1.1301040649414062,0.7670041918754578,22.5,0.0,1.7069578170776367,-1.4580488204956055,0.0,26.5,0.0,3.150343894958496,-1.233816146850586,0.0,17.25,,,,,,,,,,,,,,,,,,,,,,,,,,,,,,,,,,,,,,,,
0.0,-2.4092856619972736e-05,2.2476251125335693,-1.2585440874099731,-6.946493522264063e-05,-1.118831992149353,-1.1563432216644287,-1.8887458281824365e-05,-0.77625972032547,-0.5952744483947754,0.0,1.8836259841918945,-1.2198686599731445,0.19175104796886444,21.75,0.0,1.9887685775756836,-1.2853145599365234,-1.5340083837509155,21.75,0.0,2.227663993835449,-1.2799501419067383,-1.5340083837509155,20.75,0.0,2.358555793762207,-1.3840198516845703,-1.5340083837509155,20.5,0.0,2.4257898330688477,-1.5052556991577148,-0.9587552398443222,17.25,0.0,2.5527477264404297,-1.5753507614135742,-0.7670041918754578,13.0,0.0,1.784205436706543,-1.361846923828125,0.0,26.0,0.0,2.9633045196533203,-1.2606382369995117,0.0,17.5,,,,,,,,,,,,,,,,,,,,,,,,,,,,,,,,,,,,,,,,,,,,,
0.0,-2.570642391219735e-05,2.1421597003936768,-1.3638185262680054,-6.405997555702925e-05,-1.1522811651229858,-1.2155587673187256,-1.4261022442951798e-05,-0.7073571681976318,-0.6169264912605286,0.0,1.9136667251586914,-1.1504888534545898,0.19175104796886444,21.0,0.0,2.0416975021362305,-1.1841058731079102,0.19175104796886444,21.25,0.0,2.1944046020507812,-1.2137889862060547,-0.19175104796886444,19.0,0.0,2.3810863494873047,-1.237034797668457,-0.19175104796886444,12.75,,,,,,,,,,,,,,,,,,,,,,,,,,,,,,,,,,,,,,,,,,,,,,,,,,,,,,,,,,,,,,,,,
0.0,-2.3792510546627454e-05,2.081637144088745,-1.428118348121643,-5.410125231719576e-05,-1.1103661060333252,-1.174796223640442,-6.977973953326e-06,-0.5906721949577332,-0.5352975726127625,0.0,1.8360614776611328,-1.3200044631958008,-0.19175104796886444,24.25,0.0,1.9633769989013672,-1.3021230697631836,-0.19175104796886444,25.25,0.0,2.08282470703125,-1.3003349304199219,-0.19175104796886444,22.0,0.0,2.2351741790771484,-1.312851905822754,-0.3835020959377289,12.25,0.0,2.986907958984375,-1.0564327239990234,-0.19175104796886444,12.5,0.0,3.072381019592285,-1.0557174682617188,-0.19175104796886444,12.25,0.0,2.4733543395996094,-1.0814666748046875,0.0,21.75,,,,,,,,,,,,,,,,,,,,,,,,,,,,,,,,,,,,,,,,,,,,,,,,,,
0.0,-2.3716635041637346e-05,1.9970433712005615,-1.4872987270355225,-4.739554788102396e-05,-1.084180235862732,-1.1459304094314575,-2.3002035050012637e-06,-0.4819071292877197,-0.4885171353816986,0.0,1.788496971130371,-1.2009143829345703,0.19175104796886444,15.0,0.0,1.8668174743652344,-1.1487007141113281,0.19175104796886444,25.5,0.0,1.9783973693847656,-1.1190176010131836,0.19175104796886444,21.5,0.0,2.201557159423828,-1.074671745300293,-0.19175104796886444,16.0,0.0,2.4726390838623047,-1.056075096130371,0.0,22.0,0.0,2.467989921569824,-0.5257129669189453,0.0,29.25,,,,,,,,,,,,,,,,,,,,,,,,,,,,,,,,,,,,,,,,,,,,,,,,,,,,,,,
0.0,-2.2709029508405365e-05,1.9487158060073853,-1.5134949684143066,-3.9963961171451956e-05,-0.9890773892402649,-1.0588297843933105,2.5196404749294743e-06,-0.3212570548057556,-0.3945441246032715,0.0,1.912236213684082,-1.0646581649780273,0.19175104796886444,14.5,0.0,1.958012580871582,-1.0807514190673828,0.19175104796886444,26.5,0.0,2.0023584365844727,-1.119375228881836,0.19175104796886444,25.0,0.0,2.094268798828125,-1.2202262878417969,-0.19175104796886444,18.5,0.0,2.3478269577026367,-0.98419189453125,0.0,28.5,0.0,2.4765729904174805,-1.0796785354614258,0.0,22.25,,,,,,,,,,,,,,,,,,,,,,,,,,,,,,,,,,,,,,,,,,,,,,,,,,,,,,,
0.0,4.859484192820673e-07,3.035074472427368,-0.09366093575954437,-2.745867504927446e-06,-0.4998319745063782,0.04844551533460617,-3.8069304082455346e-06,-0.5002133846282959,-0.3210563063621521,0.0,3.311634063720703,-0.7452964782714844,-0.19175104796886444,15.75,0.0,3.222942352294922,-0.5099773406982422,-0.19175104796886444,17.5,0.0,2.921462059020996,-0.10120868682861328,-0.19175104796886444,22.5,0.0,3.0355453491210938,-0.2843141555786133,-0.19175104796886444,19.5,0.0,2.8449296951293945,0.016808509826660156,-0.19175104796886444,19.75,0.0,2.72369384765625,0.18990039825439453,-0.3835020959377289,13.0,0.0,3.068089485168457,-1.8013715744018555,0.0,15.25,0.0,3.165006637573242,-1.347184181213379,0.0,21.5,0.0,3.1582117080688477,-0.7231235504150391,0.0,21.75,,,,,,,,,,,,,,,,,,,,,,,,,,,,,,,,,,,,,,,,
0.0,1.2780466818185232e-07,2.9987943172454834,-0.1525973528623581,-3.2054294933914207e-06,-0.49648523330688477,-0.08357713371515274,-3.8551288525923155e-06,-0.4225677251815796,-0.4026869237422943,0.0,3.1256675720214844,-1.0002851486206055,-0.19175104796886444,16.0,0.0,3.26693058013916,-0.9505748748779297,-0.19175104796886444,14.0,0.0,2.7648210525512695,0.04506111145019531,-0.3835020959377289,15.5,0.0,2.8395652770996094,-0.027894973754882812,-0.3835020959377289,24.0,0.0,2.866029739379883,-0.059723854064941406,-0.3835020959377289,24.75,0.0,2.973318099975586,-0.08296966552734375,-0.3835020959377289,18.0,0.0,3.0205249786376953,-1.8607378005981445,0.0,15.0,0.0,3.1653642654418945,-1.3235807418823242,0.0,21.0,0.0,3.1599998474121094,-0.6834268569946289,0.0,21.75,,,,,,,,,,,,,,,,,,,,,,,,,,,,,,,,,,,,,,,,
0.0,-1.6694295368324674e-07,2.9611449241638184,-0.24242788553237915,-3.540715852068388e-06,-0.4878908693790436,-0.25642842054367065,-3.8252815102168825e-06,-0.34615641832351685,-0.5138490200042725,0.0,3.118157386779785,-1.2395381927490234,-0.19175104796886444,14.75,0.0,2.982616424560547,-0.9201765060424805,-0.19175104796886444,20.75,0.0,3.1321048736572266,-0.8186101913452148,-0.19175104796886444,19.75,0.0,2.8252601623535156,-0.2263784408569336,-0.3835020959377289,21.25,0.0,2.6972293853759766,0.10907649993896484,-0.3835020959377289,23.0,0.0,2.717256546020508,0.10728836059570312,-0.3835020959377289,25.75,0.0,3.1517744064331055,-1.5603303909301758,0.0,12.5,0.0,3.1353235244750977,-0.7216930389404297,0.0,23.25,,,,,,,,,,,,,,,,,,,,,,,,,,,,,,,,,,,,,,,,,,,,,
0.0,-4.165207769801782e-07,2.942531108856201,-0.3035790026187897,-3.7797844925080426e-06,-0.44421133399009705,-0.36784958839416504,-3.7384127153927693e-06,-0.2408100664615631,-0.5681859254837036,0.0,3.0541419982910156,-0.5747079849243164,-0.19175104796886444,25.25,0.0,3.1632184982299805,-0.6984472274780273,-0.19175104796886444,24.25,0.0,3.2454729080200195,-0.6673336029052734,-0.19175104796886444,19.5,0.0,2.910733222961426,-0.22995471954345703,-0.19175104796886444,25.75,0.0,2.741575241088867,0.023603439331054688,-0.19175104796886444,19.5,0.0,2.8073787689208984,-0.043272972106933594,-0.19175104796886444,25.5,0.0,3.1321048736572266,-1.6021728515625,0.0,12.75,,,,,,,,,,,,,,,,,,,,,,,,,,,,,,,,,,,,,,,,,,,,,,,,,,
0.0,-5.921226602367824e-07,2.920022487640381,-0.2815582752227783,-3.8829539334983565e-06,-0.42547985911369324,-0.31999489665031433,-3.5697751172847347e-06,-0.19137296080589294,-0.4810994267463684,0.0,3.306269645690918,-0.733494758605957,-0.3835020959377289,19.5,0.0,3.299832344055176,-0.5282163619995117,-0.3835020959377289,18.75,0.0,3.180384635925293,-0.2371072769165039,-0.3835020959377289,16.25,0.0,2.7337074279785156,-0.0776052474975586,-0.3835020959377289,19.5,0.0,2.635359764099121,0.15485286712646484,-0.19175104796886444,16.0,0.0,2.8760433197021484,0.1291036605834961,-0.3835020959377289,15.25,0.0,2.501964569091797,0.2614259719848633,-0.19175104796886444,12.5,,,,,,,,,,,,,,,,,,,,,,,,,,,,,,,,,,,,,,,,,,,,,,,,,,
0.0,-7.923697467049351e-07,2.8770155906677246,-0.3476746678352356,-3.978369022661354e-06,-0.443918377161026,-0.4239720404148102,-3.4033359952445608e-06,-0.18964774906635284,-0.5291810035705566,0.0,3.0870437622070312,-0.7953643798828125,-0.5752531439065933,15.75,0.0,2.96938419342041,-0.6694793701171875,-0.19175104796886444,21.5,0.0,2.873539924621582,-0.39696693420410156,-0.3835020959377289,23.0,0.0,2.705097198486328,-0.20635128021240234,-0.3835020959377289,18.75,0.0,2.776980400085449,-0.2524852752685547,-0.3835020959377289,23.5,,,,,,,,,,,,,,,,,,,,,,,,,,,,,,,,,,,,,,,,,,,,,,,,,,,,,,,,,,,,
0.0,-8.671338491694769e-07,2.8256866931915283,-0.4071768820285797,-3.876680693792878e-06,-0.4867936372756958,-0.4993523061275482,-3.118925178569043e-06,-0.22653165459632874,-0.5460192561149597,0.0,3.1757354736328125,-1.200556755065918,-0.5752531439065933,13.75,0.0,3.0666589736938477,-1.0707378387451172,-0.5752531439065933,16.25,0.0,3.001570701599121,-0.6912946701049805,-0.5752531439065933,18.75,0.0,2.8145313262939453,-0.5471706390380859,-0.5752531439065933,20.5,0.0,2.6149749755859375,-0.0997781753540039,-0.3835020959377289,26.25,0.0,2.668619155883789,-0.1569986343383789,-0.3835020959377289,24.5,0.0,2.5745630264282227,-0.06079673767089844,-0.3835020959377289,18.75,0.0,3.0562877655029297,-0.5911588668823242,0.0,25.0,0.0,2.9071569442749023,-0.3218650817871094,0.0,24.0,0.0,2.7265548706054688,-0.09763240814208984,0.0,25.5,,,,,,,,,,,,,,,,,,,,,,,,,,,,,,,,,,,
0.0,-8.734799621379352e-07,2.745919942855835,-0.4494931101799011,-3.657505203591427e-06,-0.5976403951644897,-0.5233514904975891,-2.771863819361897e-06,-0.3559274971485138,-0.5092852115631104,0.0,2.816319465637207,-1.2077093124389648,-0.7670041918754578,16.25,0.0,3.070235252380371,-1.0693073272705078,-0.7670041918754578,15.0,0.0,2.7211904525756836,-0.6941556930541992,-0.3835020959377289,21.5,0.0,2.9397010803222656,-0.8386373519897461,-0.7670041918754578,15.0,0.0,2.6314258575439453,-0.37801265716552734,-0.9587552398443222,27.25,0.0,2.582430839538574,-0.16415119171142578,-0.9587552398443222,28.75,0.0,2.428293228149414,0.051140785217285156,-0.3835020959377289,12.75,0.0,2.5295019149780273,-0.04076957702636719,-0.5752531439065933,24.75,,,,,,,,,,,,,,,,,,,,,,,,,,,,,,,,,,,,,,,,,,,,,
0.0,-9.0806054231507e-07,2.6630849838256836,-0.6066688299179077,-3.4604377106006723e-06,-0.7348508834838867,-0.7430906891822815,-2.456733909639297e-06,-0.5149645209312439,-0.6424843072891235,0.0,2.9060840606689453,-1.417994499206543,-0.19175104796886444,15.25,0.0,3.0155181884765625,-1.5714168548583984,-0.19175104796886444,14.5,0.0,2.7229785919189453,-1.1229515075683594,-0.9587552398443222,24.75,0.0,2.7723312377929688,-1.2466907501220703,-0.9587552398443222,20.5,0.0,2.661466598510742,-0.6573200225830078,-0.9587552398443222,21.25,0.0,2.5277137756347656,-0.4341602325439453,-1.1505062878131866,24.5,0.0,2.485513687133789,-0.3572702407836914,-1.1505062878131866,21.0,0.0,3.002643585205078,-0.8933544158935547,0.0,23.25,,,,,,,,,,,,,,,,,,,,,,,,,,,,,,,,,,,,,,,,,,,,,
0.0,-8.78803689374763e-07,2.5588512420654297,-0.7329103946685791,-3.162424718539114e-06,-0.9140934944152832,-0.8628033399581909,-2.091484930133447e-06,-0.7199773192405701,-0.6625826954841614,0.0,2.797365188598633,-1.6021728515625,-0.19175104796886444,14.25,0.0,2.9622316360473633,-1.7008781433105469,-0.19175104796886444,13.75,0.0,2.672910690307617,-1.1408329010009766,-1.342257335782051,23.75,0.0,2.750515937805176,-1.2416839599609375,-1.1505062878131866,17.25,0.0,2.590656280517578,-0.9359121322631836,-1.342257335782051,23.5,0.0,2.3131370544433594,-0.5511045455932617,-0.9587552398443222,17.5,0.0,2.3925304412841797,-0.5099773406982422,-1.1505062878131866,24.5,0.0,2.4901628494262695,-0.49424171447753906,-1.1505062878131866,24.0,0.0,2.977609634399414,-0.9359121322631836,0.0,19.0,,,,,,,,,,,,,,,,,,,,,,,,,,,,,,,,,,,,,,,,
0.0,-8.551863857064745e-07,2.4476354122161865,-0.9277598857879639,-2.8803015084122308e-06,-1.0489062070846558,-1.1140758991241455,-1.7627988881940837e-06,-0.8072580099105835,-0.8177851438522339,0.0,2.6339292526245117,-1.507401466369629,-0.5752531439065933,18.0,0.0,2.7587413787841797,-1.659393310546875,-2.4927636235952377,15.25,0.0,2.9554367065429688,-1.6908645629882812,-0.19175104796886444,12.75,0.0,2.301335334777832,-1.1150836944580078,-0.5752531439065933,24.25,0.0,2.498030662536621,-1.164078712463379,-0.5752531439065933,24.25,0.0,2.5881528854370117,-1.270294189453125,-0.5752531439065933,20.25,0.0,2.190828323364258,-0.9130239486694336,-0.5752531439065933,26.0,0.0,2.1865367889404297,-0.698089599609375,-0.5752531439065933,24.5,0.0,1.901865005493164,-1.2896060943603516,0.0,22.75,,,,,,,,,,,,,,,,,,,,,,,,,,,,,,,,,,,,,,,,
0.0,-8.876901347321109e-07,2.3077950477600098,-1.134871482849121,-2.6797324608196504e-06,-1.2031514644622803,-1.36167573928833,-1.5085954601090634e-06,-0.894456684589386,-0.9601130485534668,0.0,1.7910003662109375,-1.4101266860961914,-0.3835020959377289,18.5,0.0,2.501249313354492,-1.6504526138305664,-1.1505062878131866,13.75,0.0,2.047419548034668,-1.2509822845458984,-0.3835020959377289,20.75,0.0,2.3818016052246094,-1.406550407409668,-0.3835020959377289,20.75,0.0,2.4536848068237305,-1.478433609008789,-0.3835020959377289,18.75,0.0,2.269148826599121,-1.2198686599731445,-0.9587552398443222,19.5,0.0,1.8514394760131836,-1.3589859008789062,0.0,24.5,0.0,2.8084516525268555,-1.337885856628418,0.0,17.5,,,,,,,,,,,,,,,,,,,,,,,,,,,,,,,,,,,,,,,,,,,,,
0.0,-9.270428904528671e-07,2.182713747024536,-1.2773951292037964,-2.493895408406388e-06,-1.2963435649871826,-1.4581249952316284,-1.2819040193789988e-06,-0.9011170268058777,-0.9583394527435303,0.0,2.0960569381713867,-1.2123584747314453,-0.19175104796886444,21.0,0.0,2.1686553955078125,-1.3303756713867188,-0.5752531439065933,20.75,0.0,2.2755861282348633,-1.4269351959228516,-0.5752531439065933,19.25,0.0,2.3953914642333984,-1.4977455139160156,-0.5752531439065933,13.75,0.0,2.064943313598633,-1.064300537109375,-0.19175104796886444,17.0,0.0,1.8804073333740234,-1.3225078582763672,0.0,26.0,0.0,2.866387367248535,-1.1626482009887695,0.0,17.5,0.0,2.977609634399414,-1.239180564880371,0.0,16.75,,,,,,,,,,,,,,,,,,,,,,,,,,,,,,,,,,,,,,,,,,,,,
0.0,-9.703571777208708e-07,2.062563896179199,-1.3885034322738647,-2.320417934242869e-06,-1.3561593294143677,-1.479628562927246,-1.079703679351951e-06,-0.8697202801704407,-0.8911423087120056,0.0,2.032756805419922,-1.1032819747924805,0.19175104796886444,21.5,0.0,2.0388364791870117,-1.2345314025878906,0.19175104796886444,24.75,0.0,2.0874738693237305,-1.3228654861450195,-0.9587552398443222,22.0,0.0,2.2079944610595703,-1.3900995254516602,-0.9587552398443222,16.0,0.0,1.9154548645019531,-1.2799501419067383,0.0,25.5,0.0,2.771615982055664,-1.3529062271118164,0.0,17.0,0.0,2.9397010803222656,-1.3393163681030273,0.0,16.0,,,,,,,,,,,,,,,,,,,,,,,,,,,,,,,,,,,,,,,,,,,,,,,,,,
0.0,-9.285696478400496e-07,1.9707577228546143,-1.449845552444458,-2.038069851550972e-06,-1.3371195793151855,-1.4099645614624023,-8.212728062062524e-07,-0.7537178993225098,-0.7581939101219177,0.0,1.8396377563476562,-1.1876821517944336,-0.19175104796886444,18.25,0.0,1.9726753234863281,-1.1383295059204102,-0.19175104796886444,30.5,0.0,2.0467042922973633,-1.1562108993530273,-0.19175104796886444,31.75,0.0,2.086758613586426,-1.2123584747314453,-0.19175104796886444,27.75,0.0,2.193331718444824,-1.2985467910766602,-0.19175104796886444,13.0,0.0,2.742290496826172,-1.386880874633789,0.0,16.75,0.0,2.9261112213134766,-1.3947486877441406,0.0,15.25,0.0,2.6493072509765625,-1.1208057403564453,0.0,17.5,,,,,,,,,,,,,,,,,,,,,,,,,,,,,,,,,,,,,,,,,,,,,
0.0,-3.1852941617671604e-08,2.9412217140197754,-0.9235734939575195,-1.0111351400610147e-07,-0.28998905420303345,-0.6909945011138916,-7.595112805347526e-08,-0.14730824530124664,-0.2725193500518799,0.0,2.9343366622924805,-1.1086463928222656,-0.19175104796886444,18.25,0.0,3.0748844146728516,-1.0521411895751953,-0.19175104796886444,20.5,0.0,2.8252601623535156,-0.1341104507446289,-0.19175104796886444,20.75,0.0,2.8603076934814453,-0.16486644744873047,-0.19175104796886444,21.0,0.0,2.753019332885742,-0.00286102294921875,-0.19175104796886444,12.5,0.0,3.2279491424560547,-1.065373420715332,0.0,21.5,0.0,3.357052803039551,-1.1508464813232422,0.0,16.5,0.0,3.1278133392333984,-0.9148120880126953,0.0,26.0,0.0,2.8792619705200195,0.00858306884765625,0.0,24.25,0.0,2.7698278427124023,0.15234947204589844,0.0,15.0,,,,,,,,,,,,,,,,,,,,,,,,,,,,,,,,,,,
0.0,-2.7636248844942202e-08,2.962329626083374,-0.8390495777130127,-9.073895057554182e-08,-0.23149928450584412,-0.475713312625885,-6.513710104627535e-08,-0.09946106374263763,-0.07763350009918213,0.0,3.1932592391967773,-1.3461112976074219,-0.19175104796886444,12.25,0.0,3.08990478515625,-1.0285377502441406,-0.19175104796886444,29.5,0.0,3.111720085144043,-1.1540651321411133,-0.19175104796886444,23.5,0.0,3.021240234375,-0.8432865142822266,-0.19175104796886444,28.5,0.0,2.915024757385254,-0.29146671295166016,-0.19175104796886444,27.75,0.0,2.8274059295654297,-0.1283884048461914,-0.19175104796886444,27.25,0.0,2.768397331237793,-0.05829334259033203,-0.19175104796886444,19.25,0.0,3.2308101654052734,-1.429438591003418,0.0,13.0,,,,,,,,,,,,,,,,,,,,,,,,,,,,,,,,,,,,,,,,,,,,,
0.0,-2.5439767625812237e-08,2.9431419372558594,-0.8618332743644714,-8.295020137438769e-08,-0.27060073614120483,-0.4306187629699707,-5.6437883699800295e-08,-0.16510900855064392,-0.02129373699426651,0.0,3.074169158935547,-1.7445087432861328,-0.19175104796886444,13.75,0.0,3.0562877655029297,-0.9205341339111328,-0.3835020959377289,28.5,0.0,3.07309627532959,-1.0120868682861328,-0.3835020959377289,28.75,0.0,3.104567527770996,-1.1487007141113281,-0.3835020959377289,21.0,0.0,2.960801124572754,-0.6705522537231445,-0.19175104796886444,21.5,0.0,2.797722816467285,-0.32830238342285156,-0.3835020959377289,19.25,0.0,2.7033090591430664,-0.21779537200927734,-0.3835020959377289,14.75,,,,,,,,,,,,,,,,,,,,,,,,,,,,,,,,,,,,,,,,,,,,,,,,,,
0.0,-2.5290594507509923e-08,2.932832717895508,-0.8364770412445068,-7.778433541716367e-08,-0.2751491069793701,-0.315903902053833,-4.980747547733699e-08,-0.17682985961437225,0.08245820552110672,0.0,3.0477046966552734,-0.9162425994873047,-0.3835020959377289,28.75,0.0,3.0230283737182617,-0.8425712585449219,-0.3835020959377289,30.75,0.0,3.140687942504883,-0.9158849716186523,-0.3835020959377289,17.25,0.0,2.9658079147338867,-0.6426572799682617,-0.19175104796886444,26.5,0.0,2.7344226837158203,-0.2689361572265625,-0.3835020959377289,12.75,0.0,2.865314483642578,-0.3275871276855469,-0.19175104796886444,21.0,0.0,2.9550790786743164,-0.23853778839111328,0.0,27.0,,,,,,,,,,,,,,,,,,,,,,,,,,,,,,,,,,,,,,,,,,,,,,,,,,
0.0,-2.375634622353573e-08,2.875943183898926,-0.8238601088523865,-7.075473718032299e-08,-0.3561650216579437,-0.22429333627223969,-4.2339511452382794e-08,-0.26261135935783386,0.1653766632080078,0.0,3.0798912048339844,-1.408696174621582,-0.5752531439065933,14.75,0.0,2.866387367248535,-1.0968446731567383,-0.5752531439065933,18.25,0.0,2.9958486557006836,-1.2949705123901367,-0.5752531439065933,16.0,0.0,2.571702003479004,-0.44167041778564453,-0.3835020959377289,13.0,0.0,2.6578903198242188,-0.4366636276245117,-0.3835020959377289,24.5,0.0,2.6814937591552734,-0.43523311614990234,-0.3835020959377289,26.75,0.0,2.7565956115722656,-0.5382299423217773,-0.3835020959377289,21.75,0.0,2.9211044311523438,-0.2707242965698242,0.0,26.75,,,,,,,,,,,,,,,,,,,,,,,,,,,,,,,,,,,,,,,,,,,,,
0.0,-2.22488587553471e-08,2.7939743995666504,-0.8735615015029907,-6.367929472617107e-08,-0.5027503967285156,-0.23631562292575836,-3.515453883551345e-08,-0.4266628921031952,0.16243205964565277,0.0,2.853870391845703,-1.852869987487793,-0.7670041918754578,13.25,0.0,2.523064613342285,-0.7735490798950195,-0.5752531439065933,21.75,0.0,2.8073787689208984,-0.8833408355712891,-0.7670041918754578,23.5,0.0,2.888917922973633,-0.9659528732299805,-0.7670041918754578,23.25,0.0,2.990841865539551,-1.0646581649780273,-0.7670041918754578,14.5,0.0,2.4755001068115234,-0.6787776947021484,-0.5752531439065933,14.5,0.0,2.658247947692871,-0.7556676864624023,-0.7670041918754578,21.75,0.0,2.960085868835449,-1.1240243911743164,0.0,28.5,0.0,3.08990478515625,-1.2263059616088867,0.0,20.75,0.0,3.060579299926758,-1.1054277420043945,0.0,26.5,0.0,2.8638839721679688,-0.7088184356689453,0.0,24.5,,,,,,,,,,,,,,,,,,,,,,,,,,,,,,
0.0,-2.154587086522497e-08,2.6994426250457764,-0.9145396947860718,-5.767591204630662e-08,-0.6661491394042969,-0.22838544845581055,-2.899206208439864e-08,-0.5986190438270569,0.18116003274917603,0.0,2.6972293853759766,-1.2445449829101562,-1.1505062878131866,24.0,0.0,2.843141555786133,-1.3654232025146484,-1.1505062878131866,15.75,0.0,2.799510955810547,-1.204848289489746,-1.1505062878131866,22.75,0.0,2.4815797805786133,-0.7728338241577148,-0.7670041918754578,22.25,0.0,2.4372339248657227,-0.6630420684814453,-0.7670041918754578,18.0,0.0,2.645730972290039,-0.7785558700561523,-0.7670041918754578,21.25,0.0,2.9304027557373047,-1.1630058288574219,0.0,22.75,0.0,3.041982650756836,-1.145482063293457,0.0,23.75,0.0,3.087759017944336,-1.2230873107910156,0.0,20.25,,,,,,,,,,,,,,,,,,,,,,,,,,,,,,,,,,,,,,,,
0.0,-1.9533640482904957e-08,2.5935492515563965,-0.9590021371841431,-5.009551529155942e-08,-0.8197331428527832,-0.23361605405807495,-2.2184950765335998e-08,-0.7255858182907104,0.17953063547611237,0.0,2.732992172241211,-1.546025276184082,-0.5752531439065933,16.5,0.0,2.685427665710449,-1.3375282287597656,-0.5752531439065933,23.25,0.0,2.226591110229492,-0.8912086486816406,-1.1505062878131866,17.75,0.0,2.567768096923828,-1.0585784912109375,-1.1505062878131866,26.5,0.0,2.67791748046875,-1.1751651763916016,-0.5752531439065933,28.25,0.0,2.3703575134277344,-0.7113218307495117,-1.1505062878131866,26.5,0.0,2.4576187133789062,-0.7009506225585938,-1.1505062878131866,27.0,0.0,1.6765594482421875,-1.4369487762451172,0.0,23.75,0.0,2.878904342651367,-1.2177228927612305,0.0,23.75,0.0,3.017306327819824,-1.1630058288574219,0.0,24.25,0.0,3.0913352966308594,-1.2073516845703125,0.0,20.25,,,,,,,,,,,,,,,,,,,,,,,,,,,,,,
0.0,-1.8412857016869566e-08,2.507645845413208,-0.9673188924789429,-4.4028816148511396e-08,-0.8908939957618713,-0.18996892869472504,-1.6802507829538627e-08,-0.7245938777923584,0.20252132415771484,0.0,2.6232004165649414,-1.4405250549316406,-0.3835020959377289,17.25,0.0,2.5577545166015625,-1.3021230697631836,-0.3835020959377289,21.25,0.0,2.4368762969970703,-0.9359121322631836,-0.7670041918754578,24.25,0.0,2.541661262512207,-1.0564327239990234,-0.7670041918754578,25.25,0.0,2.2802352905273438,-0.5049705505371094,-1.342257335782051,18.25,0.0,2.3818016052246094,-0.4888772964477539,-0.9587552398443222,22.25,0.0,1.7241239547729492,-1.4126300811767578,0.0,26.25,0.0,2.86710262298584,-1.2280941009521484,0.0,24.0,0.0,3.015875816345215,-1.165151596069336,0.0,24.25,0.0,3.0809640884399414,-1.2420415878295898,0.0,20.25,,,,,,,,,,,,,,,,,,,,,,,,,,,,,,,,,,,
0.0,-1.653273429269575e-08,2.4127957820892334,-1.0771781206130981,-3.721571317782946e-08,-0.9438015222549438,-0.3545556664466858,-1.1300772762012912e-08,-0.6661222577095032,0.019437074661254883,0.0,2.2687911987304688,-1.2860298156738281,-0.5752531439065933,26.25,0.0,2.3317337036132812,-1.3697147369384766,-0.5752531439065933,26.25,0.0,2.415776252746582,-1.4380216598510742,-0.5752531439065933,19.5,0.0,2.6178359985351562,-1.4873743057250977,0.19175104796886444,13.5,0.0,2.2394657135009766,-0.9845495223999023,-0.7670041918754578,22.25,0.0,2.960085868835449,-1.335740089416504,0.19175104796886444,12.75,0.0,2.1600723266601562,-0.7374286651611328,-0.7670041918754578,19.75,0.0,1.8253326416015625,-1.3142824172973633,0.0,26.75,0.0,3.038763999938965,-1.335740089416504,0.0,17.5,,,,,,,,,,,,,,,,,,,,,,,,,,,,,,,,,,,,,,,,
0.0,-1.608241362305307e-08,2.3112988471984863,-1.1474838256835938,-3.2627966106701933e-08,-0.9902756214141846,-0.4362877905368805,-7.5638642016429e-09,-0.6123719811439514,-0.07514787465333939,0.0,2.2745132446289062,-1.280665397644043,-0.19175104796886444,22.75,0.0,2.3456811904907227,-1.3500452041625977,-0.3835020959377289,19.25,0.0,2.4358034133911133,-1.3790130615234375,-0.19175104796886444,16.0,0.0,2.12860107421875,-1.0989904403686523,-0.19175104796886444,19.25,0.0,1.9937753677368164,-0.8175373077392578,-0.9587552398443222,21.5,0.0,1.8374919891357422,-1.2853145599365234,0.0,26.5,0.0,3.0584335327148438,-1.302480697631836,0.0,17.0,,,,,,,,,,,,,,,,,,,,,,,,,,,,,,,,,,,,,,,,,,,,,,,,,,
0.0,-1.4707788764667384e-08,2.267183780670166,-1.1852962970733643,-2.7061505036840572e-08,-0.9114217758178711,-0.4637208580970764,-3.44801565077546e-09,-0.42500364780426025,-0.1304008662700653,0.0,1.9619464874267578,-1.0156631469726562,0.19175104796886444,17.5,0.0,2.113938331604004,-1.1390447616577148,0.19175104796886444,15.0,0.0,2.2852420806884766,-1.2202262878417969,-0.19175104796886444,18.75,0.0,2.3936033248901367,-1.2570619583129883,-0.19175104796886444,15.25,0.0,2.751588821411133,-1.0235309600830078,-0.19175104796886444,13.25,0.0,2.985835075378418,-0.7821321487426758,-1.1505062878131866,15.0,0.0,3.0280351638793945,-1.4541149139404297,0.0,14.5,,,,,,,,,,,,,,,,,,,,,,,,,,,,,,,,,,,,,,,,,,,,,,,,,,
0.0,-1.3207152704808323e-08,2.1848483085632324,-1.271971344947815,-2.1670574668064546e-08,-0.8759390115737915,-0.5974560379981995,2.799911413831069e-10,-0.2755499482154846,-0.2898404002189636,0.0,2.071380615234375,-1.3840198516845703,-0.19175104796886444,20.75,0.0,1.932978630065918,-1.1065006256103516,0.3835020959377289,25.75,0.0,1.9608736038208008,-1.2406110763549805,0.3835020959377289,24.75,0.0,2.3546218872070312,-1.3017654418945312,-0.19175104796886444,16.25,0.0,1.9011497497558594,-0.9988546371459961,0.19175104796886444,13.25,0.0,2.5849342346191406,-1.2034177780151367,-0.3835020959377289,13.25,,,,,,,,,,,,,,,,,,,,,,,,,,,,,,,,,,,,,,,,,,,,,,,,,,,,,,,
0.0,-1.2613270428118994e-08,2.097519636154175,-1.3354650735855103,-1.7861870205138075e-08,-0.8632849454879761,-0.6621350646018982,2.7578628269964156e-09,-0.1946846842765808,-0.35476887226104736,0.0,1.9633769989013672,-1.2667179107666016,0.19175104796886444,19.5,0.0,2.0956993103027344,-1.3622045516967773,-0.19175104796886444,16.75,0.0,1.9057989120483398,-1.1086463928222656,0.19175104796886444,20.5,0.0,1.85394287109375,-0.9820461273193359,0.19175104796886444,12.5,0.0,1.8646717071533203,-1.2227296829223633,0.0,27.25,,,,,,,,,,,,,,,,,,,,,,,,,,,,,,,,,,,,,,,,,,,,,,,,,,,,,,,,,,,,
0.0,-1.1129063892667546e-08,2.0784096717834473,-1.3493223190307617,-1.3142308574742856e-08,-0.730080246925354,-0.6243435740470886,5.664884561440431e-09,-0.01330721378326416,-0.32217395305633545,0.0,1.8825531005859375,-1.1304616928100586,-0.19175104796886444,23.0,0.0,1.989126205444336,-1.2116432189941406,0.19175104796886444,18.25,0.0,2.292752265930176,-1.1701583862304688,0.19175104796886444,19.75,0.0,2.433657646179199,-1.1293888092041016,0.19175104796886444,18.0,0.0,2.6657581329345703,-0.995635986328125,-0.3835020959377289,12.25,0.0,2.9937028884887695,-1.6622543334960938,0.0,12.0,0.0,2.8542280197143555,-1.4491081237792969,0.0,13.5,,,,,,,,,,,,,,,,,,,,,,,,,,,,,,,,,,,,,,,,,,,,,,,,,,
0.0,-1.0009399531440977e-08,2.0513975620269775,-1.3745033740997314,-9.292586256037794e-09,-0.6317929029464722,-0.5993741154670715,7.81704123653526e-09,0.10032501816749573,-0.2890447676181793,0.0,2.0030736923217773,-1.0979175567626953,0.19175104796886444,14.5,0.0,2.0399093627929688,-1.3039112091064453,0.19175104796886444,17.0,0.0,2.2083520889282227,-1.2631416320800781,-0.19175104796886444,18.0,0.0,2.3839473724365234,-1.1873245239257812,-0.19175104796886444,14.75,,,,,,,,,,,,,,,,,,,,,,,,,,,,,,,,,,,,,,,,,,,,,,,,,,,,,,,,,,,,,,,,,
0.0,-9.637686204655438e-09,1.9828226566314697,-1.4166876077651978,-6.787563400223462e-09,-0.6280492544174194,-0.5942972302436829,8.95388208022041e-09,0.09397047758102417,-0.2578957676887512,0.0,1.8682479858398438,-1.2570619583129883,-0.19175104796886444,19.5,0.0,1.8582344055175781,-1.25885009765625,-0.19175104796886444,17.75,,,,,,,,,,,,,,,,,,,,,,,,,,,,,,,,,,,,,,,,,,,,,,,,,,,,,,,,,,,,,,,,,,,,,,,,,,,
0.0,-5.483600240552278e-10,2.9124538898468018,-0.415606826543808,-1.0185698950948563e-09,-0.21274298429489136,-0.2807416319847107,-2.185064351678534e-10,-0.07393260300159454,-0.1678154468536377,0.0,3.1453371047973633,-1.2187957763671875,-0.19175104796886444,17.5,0.0,3.097057342529297,-1.1172294616699219,-0.19175104796886444,20.75,0.0,3.0183792114257812,-0.8264780044555664,-0.19175104796886444,19.75,0.0,2.724766731262207,0.08940696716308594,-0.19175104796886444,21.0,0.0,2.766251564025879,0.10836124420166016,-0.19175104796886444,25.75,0.0,2.819180488586426,0.15878677368164062,-0.19175104796886444,23.25,0.0,3.113865852355957,-1.0542869567871094,0.0,26.25,0.0,2.8209686279296875,0.017523765563964844,0.0,27.25,0.0,2.8696060180664062,0.05829334259033203,0.0,27.25,,,,,,,,,,,,,,,,,,,,,,,,,,,,,,,,,,,,,,,,
0.0,-5.068903075056141e-10,2.900935649871826,-0.36936941742897034,-8.541805596173901e-10,-0.20165564119815826,-0.1720420867204666,-1.022989262744467e-10,-0.05773022770881653,-0.06420814245939255,0.0,2.6607513427734375,-2.1654367446899414,-0.19175104796886444,16.0,0.0,3.018021583557129,-0.6927251815795898,-0.19175104796886444,17.25,0.0,3.142118453979492,-0.7524490356445312,-0.19175104796886444,14.25,0.0,2.6900768280029297,0.028967857360839844,-0.19175104796886444,16.5,0.0,2.749800682067871,0.2428293228149414,-0.19175104796886444,19.25,0.0,2.8585195541381836,0.09512901306152344,-0.19175104796886444,17.75,0.0,3.14176082611084,-1.601099967956543,0.0,12.5,0.0,3.1049251556396484,-1.2996196746826172,0.0,18.5,0.0,2.8159618377685547,-0.001430511474609375,0.0,27.5,0.0,2.876758575439453,0.024318695068359375,0.0,27.5,,,,,,,,,,,,,,,,,,,,,,,,,,,,,,,,,,,
0.0,-4.3942910421534975e-10,2.8803586959838867,-0.41561540961265564,-6.641703853560443e-10,-0.24087181687355042,-0.2219861000776291,2.42305411846111e-11,-0.12069720774888992,-0.09535963088274002,0.0,2.995133399963379,-1.9358396530151367,-0.5752531439065933,14.25,0.0,3.0552148818969727,-1.4705657958984375,-0.19175104796886444,17.25,0.0,3.0434131622314453,-1.0063648223876953,-0.3835020959377289,21.25,0.0,3.0094385147094727,-0.662684440612793,-0.3835020959377289,25.25,0.0,2.9633045196533203,-0.39017200469970703,-0.3835020959377289,23.75,0.0,2.788066864013672,0.06687641143798828,-0.3835020959377289,20.0,0.0,2.639293670654297,0.1838207244873047,-0.3835020959377289,20.0,0.0,2.8138160705566406,-0.015020370483398438,0.0,26.75,0.0,2.8853416442871094,0.024318695068359375,0.0,26.75,,,,,,,,,,,,,,,,,,,,,,,,,,,,,,,,,,,,,,,,
0.0,-3.6180733409274524e-10,2.8422467708587646,-0.48681890964508057,-4.730767444449668e-10,-0.30990657210350037,-0.30667930841445923,1.4405035497766505e-10,-0.20956698060035706,-0.15090079605579376,0.0,2.9883384704589844,-1.0567903518676758,-0.5752531439065933,24.25,0.0,3.0351877212524414,-1.1039972305297852,-0.5752531439065933,21.75,0.0,3.193974494934082,-0.9176731109619141,-0.5752531439065933,16.25,0.0,2.8460025787353516,-0.6369352340698242,-0.19175104796886444,19.0,0.0,2.585291862487793,-0.13911724090576172,-0.3835020959377289,14.25,0.0,2.6503801345825195,-0.19490718841552734,-0.3835020959377289,23.5,0.0,2.6804208755493164,-0.25463104248046875,-0.19175104796886444,24.0,0.0,3.103494644165039,-1.2863874435424805,0.0,18.5,0.0,3.0727386474609375,-1.086115837097168,0.0,25.0,0.0,3.0330419540405273,-0.7874965667724609,0.0,26.0,0.0,2.8034448623657227,-0.005364418029785156,0.0,26.75,0.0,2.8896331787109375,0.014662742614746094,0.0,26.75,,,,,,,,,,,,,,,,,,,,,,,,,
0.0,-2.9659963374228937e-10,2.796665906906128,-0.5574520230293274,-3.1117802778979353e-10,-0.3839496970176697,-0.38071534037590027,2.383693520346952e-10,-0.2919448912143707,-0.19238591194152832,0.0,2.7780532836914062,-0.9416341781616211,-0.19175104796886444,22.5,0.0,2.9050111770629883,-0.9920597076416016,-0.5752531439065933,21.25,0.0,3.021240234375,-1.0929107666015625,-0.5752531439065933,16.5,0.0,3.2143592834472656,-0.9891986846923828,-0.5752531439065933,13.0,0.0,2.6979446411132812,-0.4831552505493164,-0.19175104796886444,21.5,0.0,2.543807029724121,-0.1577138900756836,-0.5752531439065933,17.25,0.0,2.593517303466797,-0.23603439331054688,-0.5752531439065933,22.25,0.0,3.1299591064453125,-1.2313127517700195,0.0,18.5,0.0,3.070950508117676,-1.0986328125,0.0,24.25,0.0,3.027677536010742,-0.8382797241210938,0.0,26.0,0.0,2.8856992721557617,-0.008225440979003906,0.0,25.25,,,,,,,,,,,,,,,,,,,,,,,,,,,,,,
0.0,-2.4037205559324093e-10,2.7324302196502686,-0.6633801460266113,-1.7181051026327054e-10,-0.5258849859237671,-0.49313464760780334,3.138669046887088e-10,-0.47578829526901245,-0.24916788935661316,0.0,2.8274059295654297,-1.292109489440918,-0.9587552398443222,25.75,0.0,2.902865409851074,-1.3486146926879883,-0.9587552398443222,20.75,0.0,2.989053726196289,-1.4805793762207031,-0.9587552398443222,15.75,0.0,2.754092216491699,-1.1790990829467773,-0.9587552398443222,23.5,0.0,2.696514129638672,-0.6165504455566406,-0.19175104796886444,20.75,0.0,2.5806427001953125,-0.2410411834716797,-0.5752531439065933,21.25,0.0,2.5309324264526367,-0.0711679458618164,-0.5752531439065933,17.0,0.0,2.948641777038574,-1.9472837448120117,0.0,13.0,0.0,3.0351877212524414,-1.1597871780395508,0.0,24.5,0.0,2.960801124572754,-1.072525978088379,0.0,26.75,0.0,2.8960704803466797,-0.11730194091796875,0.0,25.25,,,,,,,,,,,,,,,,,,,,,,,,,,,,,,
0.0,-1.9630669312320492e-10,2.6579196453094482,-0.6925767660140991,-6.012933206900328e-11,-0.656410276889801,-0.45761018991470337,3.6665859237672294e-10,-0.6170015931129456,-0.17381566762924194,0.0,1.6089677810668945,-1.4230012893676758,-0.19175104796886444,18.75,0.0,2.7369260787963867,-1.1054277420043945,-1.1505062878131866,19.75,0.0,2.8134584426879883,-1.1401176452636719,-1.1505062878131866,19.5,0.0,2.8907060623168945,-1.3003349304199219,-1.1505062878131866,15.0,0.0,2.637505531311035,-0.7317066192626953,-0.3835020959377289,20.5,0.0,2.5169849395751953,-0.3190040588378906,-0.7670041918754578,25.25,0.0,2.4840831756591797,-0.22923946380615234,-0.7670041918754578,23.25,0.0,3.139615058898926,-1.6350746154785156,0.0,13.75,0.0,2.9343366622924805,-1.1415481567382812,0.0,21.5,0.0,3.025531768798828,-1.1848211288452148,0.0,22.25,0.0,3.0913352966308594,-1.3278722763061523,0.0,18.75,0.0,2.888202667236328,-0.15342235565185547,0.0,23.75,0.0,2.7762651443481445,-0.06437301635742188,0.0,26.0,,,,,,,,,,,,,,,,,,,,
0.0,-1.4457836317038897e-10,2.575674295425415,-0.8493280410766602,5.214464623981563e-11,-0.7226344347000122,-0.6799337267875671,4.156459898485565e-10,-0.591966986656189,-0.3623673915863037,0.0,1.9462108612060547,-1.2044906616210938,-0.19175104796886444,22.25,0.0,2.6979446411132812,-1.2431144714355469,-0.19175104796886444,17.75,0.0,2.5681257247924805,-1.0521411895751953,-0.19175104796886444,28.75,0.0,2.6006698608398438,-1.1572837829589844,-0.19175104796886444,24.75,0.0,2.933979034423828,-1.2888908386230469,-0.3835020959377289,13.75,0.0,2.5066137313842773,-0.7663965225219727,-0.5752531439065933,26.0,0.0,2.361774444580078,-0.6483793258666992,-0.5752531439065933,24.0,0.0,1.8357038497924805,-1.2971162796020508,0.0,25.75,0.0,2.9844045639038086,-1.9268989562988281,0.0,12.25,0.0,2.8635263442993164,-1.216292381286621,0.0,20.5,0.0,3.080606460571289,-1.3228654861450195,0.0,17.5,,,,,,,,,,,,,,,,,,,,,,,,,,,,,,
0.0,-1.0459733079670741e-10,2.471230983734131,-0.9613342881202698,1.3821754851761625e-10,-0.8412705659866333,-0.7845301628112793,4.450607937744877e-10,-0.6626675128936768,-0.414415568113327,0.0,2.5838613510131836,-1.4480352401733398,-1.5340083837509155,14.5,0.0,1.9859075546264648,-1.0535717010498047,-0.19175104796886444,25.0,0.0,2.504110336303711,-1.2481212615966797,-0.3835020959377289,23.75,0.0,2.5409460067749023,-1.2978315353393555,-0.3835020959377289,21.25,0.0,2.250552177429199,-0.6787776947021484,-0.7670041918754578,25.0,0.0,2.404332160949707,-0.8851289749145508,-0.5752531439065933,21.0,0.0,1.8875598907470703,-1.2012720108032227,0.0,27.25,0.0,2.717256546020508,-1.0718107223510742,0.0,19.5,0.0,2.8595924377441406,-1.1551380157470703,0.0,20.25,0.0,3.0781030654907227,-1.3850927352905273,0.0,15.25,,,,,,,,,,,,,,,,,,,,,,,,,,,,,,,,,,,
0.0,-6.875398167460745e-11,2.378786325454712,-1.069821834564209,2.10036044112627e-10,-0.9018749594688416,-0.8877787590026855,4.6304909906424996e-10,-0.6384521722793579,-0.4798648953437805,0.0,2.0906925201416016,-0.9802579879760742,-0.19175104796886444,17.5,0.0,2.3353099822998047,-1.0828971862792969,-0.3835020959377289,21.5,0.0,2.4476051330566406,-1.1780261993408203,-0.5752531439065933,21.25,0.0,2.5244951248168945,-1.25885009765625,-0.19175104796886444,16.25,0.0,2.216935157775879,-0.9827613830566406,-0.19175104796886444,21.0,0.0,1.8678903579711914,-1.2148618698120117,0.0,29.5,0.0,2.6636123657226562,-1.1941194534301758,0.0,19.25,0.0,2.8574466705322266,-1.169443130493164,0.0,20.0,0.0,3.1156539916992188,-1.272439956665039,0.0,14.5,0.0,2.484440803527832,-0.5403757095336914,0.0,25.75,,,,,,,,,,,,,,,,,,,,,,,,,,,,,,,,,,,
0.0,-3.3670500415583504e-11,2.288323402404785,-1.195770263671875,2.730278503282335e-10,-0.9273962378501892,-1.0291752815246582,4.740738912545339e-10,-0.5576363801956177,-0.5924251079559326,0.0,2.192258834838867,-1.3089179992675781,-0.19175104796886444,22.5,0.0,2.3299455642700195,-1.303553581237793,-0.19175104796886444,22.5,0.0,2.146482467651367,-1.0128021240234375,0.19175104796886444,23.25,0.0,2.459406852722168,-1.3103485107421875,-0.19175104796886444,12.75,0.0,2.094268798828125,-0.9355545043945312,0.19175104796886444,22.25,0.0,1.8922090530395508,-1.2102127075195312,0.0,29.25,0.0,2.6514530181884766,-1.2009143829345703,0.0,19.5,,,,,,,,,,,,,,,,,,,,,,,,,,,,,,,,,,,,,,,,,,,,,,,,,,
0.0,-2.4521905773317032e-12,2.2269768714904785,-1.2461870908737183,3.2247499115456435e-10,-0.9160897135734558,-0.994088351726532,4.752294113785638e-10,-0.4865388870239258,-0.5151764750480652,0.0,2.0738840103149414,-1.1619329452514648,-0.19175104796886444,20.5,0.0,2.303481101989746,-1.1529922485351562,-0.19175104796886444,16.25,0.0,2.5860071182250977,-1.1790990829467773,-0.19175104796886444,18.0,0.0,2.1053552627563477,-0.8500814437866211,-0.7670041918754578,17.0,0.0,2.5484561920166016,-1.1211633682250977,-0.19175104796886444,20.25,0.0,1.9022226333618164,-1.189112663269043,0.0,29.0,0.0,2.6214122772216797,-1.2559890747070312,0.0,20.0,0.0,3.079533576965332,-1.3561248779296875,0.0,13.0,,,,,,,,,,,,,,,,,,,,,,,,,,,,,,,,,,,,,,,,,,,,,
0.0,2.7395271814945055e-11,2.124680995941162,-1.3421475887298584,3.634789136341965e-10,-0.9702188372612,-1.0410964488983154,4.709556078452692e-10,-0.4852738678455353,-0.5162407755851746,0.0,2.05385684967041,-1.3221502304077148,-0.19175104796886444,20.5,0.0,1.9440650939941406,-1.1991262435913086,-0.19175104796886444,21.75,0.0,2.015233039855957,-1.2320280075073242,-0.19175104796886444,23.75,0.0,1.947641372680664,-1.1490583419799805,0.0,29.25,0.0,2.633213996887207,-1.2252330780029297,0.0,20.25,,,,,,,,,,,,,,,,,,,,,,,,,,,,,,,,,,,,,,,,,,,,,,,,,,,,,,,,,,,,
0.0,5.005244829714428e-11,2.055189609527588,-1.4186290502548218,3.888242505745154e-10,-0.9633932709693909,-1.0429472923278809,4.565745836959678e-10,-0.4291320741176605,-0.47713422775268555,0.0,1.821756362915039,-1.4233589172363281,-0.19175104796886444,17.0,0.0,1.8743276596069336,-1.4966726303100586,-0.19175104796886444,20.5,0.0,2.113938331604004,-1.338958740234375,-0.19175104796886444,19.0,0.0,2.6417970657348633,-1.2252330780029297,-0.19175104796886444,13.25,0.0,2.49481201171875,-1.0571479797363281,-0.19175104796886444,13.0,0.0,1.9294023513793945,-1.1948347091674805,0.0,29.25,0.0,2.58028507232666,-1.2377500534057617,0.0,19.75,0.0,2.750515937805176,-1.2820959091186523,0.0,15.5,0.0,2.9375553131103516,-1.3890266418457031,0.0,16.0,,,,,,,,,,,,,,,,,,,,,,,,,,,,,,,,,,,,,,,,
0.0,-7.75151817733466e-12,2.938542604446411,-0.29484662413597107,-7.2269980798400635e-12,-0.28951790928840637,-0.3922897279262543,5.623659524167657e-12,-0.12091158330440521,-0.533021092414856,0.0,3.279447555541992,-0.7524490356445312,-0.3835020959377289,16.0,0.0,3.085613250732422,-0.5743503570556641,-0.3835020959377289,22.0,0.0,3.1735897064208984,-0.719904899597168,-0.3835020959377289,20.25,0.0,2.6911497116088867,0.0718832015991211,-0.3835020959377289,22.25,0.0,2.7333498001098633,-0.016450881958007812,-0.3835020959377289,25.0,0.0,2.869248390197754,-0.04184246063232422,-0.3835020959377289,21.0,0.0,3.336310386657715,-1.1723041534423828,0.0,16.25,0.0,3.1614303588867188,-0.8643865585327148,0.0,25.0,0.0,3.2619237899780273,-0.9298324584960938,0.0,20.5,0.0,3.0498504638671875,-0.5342960357666016,0.0,25.25,0.0,2.912163734436035,-0.004649162292480469,0.0,27.5,,,,,,,,,,,,,,,,,,,,,,,,,,,,,,
0.0,-6.3073899402021905e-12,2.901315450668335,-0.46393200755119324,-3.9642004956430554e-12,-0.3799861967563629,-0.6417832374572754,7.347377914412867e-12,-0.2651714086532593,-0.6841853857040405,0.0,3.003716468811035,-1.7566680908203125,-0.19175104796886444,14.5,0.0,3.0165910720825195,-1.1841058731079102,-0.5752531439065933,30.25,0.0,3.0333995819091797,-1.335740089416504,-0.5752531439065933,23.0,0.0,3.0072927474975586,-1.096487045288086,-0.5752531439065933,30.25,0.0,2.9407739639282227,-0.8579492568969727,-0.5752531439065933,22.0,0.0,2.7626752853393555,-0.12874603271484375,-0.5752531439065933,20.0,0.0,2.658247947692871,0.06008148193359375,-0.5752531439065933,18.0,0.0,3.276944160461426,-1.2642145156860352,0.0,17.0,,,,,,,,,,,,,,,,,,,,,,,,,,,,,,,,,,,,,,,,,,,,,
0.0,-4.797075497248171e-12,2.8367984294891357,-0.5128730535507202,-8.280314368197539e-13,-0.4910556674003601,-0.6594735980033875,8.887732563800377e-12,-0.3990725874900818,-0.6265739798545837,0.0,2.8721094131469727,-1.143336296081543,-0.5752531439065933,24.0,0.0,2.989053726196289,-1.2574195861816406,-0.3835020959377289,21.0,0.0,3.0870437622070312,-1.3175010681152344,-0.3835020959377289,17.5,0.0,2.7701854705810547,-0.6777048110961914,-0.5752531439065933,25.5,0.0,2.665400505065918,-0.17881393432617188,-0.5752531439065933,29.75,0.0,2.578854560852051,0.0457763671875,-0.7670041918754578,23.75,0.0,2.623915672302246,-0.037550926208496094,-0.7670041918754578,30.75,,,,,,,,,,,,,,,,,,,,,,,,,,,,,,,,,,,,,,,,,,,,,,,,,,
0.0,-3.545780639588325e-12,2.7656497955322266,-0.5863219499588013,1.7322846716100182e-12,-0.6379193067550659,-0.6964779496192932,9.977589067455828e-12,-0.5872373580932617,-0.5789313912391663,0.0,3.0298233032226562,-1.4694929122924805,-0.9587552398443222,15.0,0.0,2.945065498352051,-1.3021230697631836,-0.9587552398443222,18.25,0.0,2.823472023010254,-0.8475780487060547,-0.7670041918754578,26.25,0.0,2.9125213623046875,-0.8883476257324219,-0.7670041918754578,22.5,0.0,2.727985382080078,-0.6351470947265625,-0.7670041918754578,21.5,0.0,2.5713443756103516,-0.14483928680419922,-0.7670041918754578,22.75,0.0,2.5119781494140625,0.011444091796875,-0.9587552398443222,19.0,0.0,2.5652647018432617,-0.0032186508178710938,0.0,22.5,0.0,2.62606143951416,-0.05543231964111328,0.0,29.25,,,,,,,,,,,,,,,,,,,,,,,,,,,,,,,,,,,,,,,,
0.0,-2.382505434259108e-12,2.666619062423706,-0.6799231171607971,3.957825386868841e-12,-0.8311867117881775,-0.7498817443847656,1.0788059681687834e-11,-0.8130316138267517,-0.5411930084228516,0.0,2.6410818099975586,-1.3189315795898438,-0.9587552398443222,24.5,0.0,2.7151107788085938,-1.416921615600586,-0.9587552398443222,22.25,0.0,2.842426300048828,-1.4358758926391602,-0.7670041918754578,18.75,0.0,3.0469894409179688,-1.4090538024902344,-0.7670041918754578,13.75,0.0,2.605319023132324,-0.8440017700195312,-0.9587552398443222,22.75,0.0,2.5119781494140625,-0.45311450958251953,-1.342257335782051,24.75,0.0,2.44295597076416,-0.10085105895996094,-0.9587552398443222,23.25,0.0,2.3603439331054688,-0.00286102294921875,-0.9587552398443222,17.75,0.0,2.6149749755859375,-0.0890493392944336,0.0,29.25,0.0,2.676844596862793,-0.15485286712646484,0.0,29.0,,,,,,,,,,,,,,,,,,,,,,,,,,,,,,,,,,,
0.0,-1.439807908315549e-12,2.540628671646118,-0.7293306589126587,5.671153650854688e-12,-1.0676263570785522,-0.6943442821502686,1.121120470765069e-11,-1.0792622566223145,-0.3951722979545593,0.0,2.6557445526123047,-1.4719963073730469,-0.7670041918754578,13.75,0.0,2.8520822525024414,-1.5724897384643555,-0.3835020959377289,13.25,0.0,2.9801130294799805,-1.667618751525879,-0.3835020959377289,12.25,0.0,2.4279356002807617,-1.2291669845581055,-1.72575943171978,24.75,0.0,2.5316476821899414,-1.3071298599243164,-1.72575943171978,17.75,0.0,2.3936033248901367,-0.5174875259399414,-1.72575943171978,25.5,0.0,2.2974014282226562,-0.2281665802001953,-1.342257335782051,29.5,0.0,2.319216728210449,-0.25784969329833984,-1.342257335782051,31.25,0.0,2.582073211669922,-0.10228157043457031,0.0,30.0,0.0,2.67183780670166,-0.19097328186035156,0.0,28.5,,,,,,,,,,,,,,,,,,,,,,,,,,,,,,,,,,,
0.0,-6.896894080149485e-13,2.3711345195770264,-0.8324684500694275,6.916207190288404e-12,-1.3781700134277344,-0.7203052043914795,1.1294905115366571e-11,-1.4096710681915283,-0.32016876339912415,0.0,2.5119781494140625,-1.3915300369262695,-2.109261527657509,18.0,0.0,2.585291862487793,-1.5864372253417969,-2.109261527657509,16.5,0.0,2.7076005935668945,-1.7001628875732422,-0.7670041918754578,12.5,0.0,2.302408218383789,-1.0864734649658203,-2.3010125756263733,22.25,0.0,2.442598342895508,-1.209855079650879,-0.5752531439065933,19.5,0.0,2.095341682434082,-0.6458759307861328,-1.9175104796886444,28.75,0.0,2.157926559448242,-0.7992982864379883,-1.1505062878131866,25.25,0.0,2.063155174255371,-0.5164146423339844,-1.9175104796886444,14.25,0.0,2.7941465377807617,-0.9119510650634766,0.0,19.5,0.0,2.569913864135742,-0.11050701141357422,0.0,29.25,0.0,2.670764923095703,-0.25141239166259766,0.0,25.5,,,,,,,,,,,,,,,,,,,,,,,,,,,,,,
0.0,5.073475277048156e-14,2.1977577209472656,-1.0868788957595825,8.032870375818124e-12,-1.5782208442687988,-1.102216124534607,1.1297513272112703e-11,-1.4531309604644775,-0.6481901407241821,0.0,1.7952919006347656,-1.4290809631347656,0.19175104796886444,19.25,0.0,1.9583702087402344,-1.451253890991211,-1.5340083837509155,22.75,0.0,2.0374059677124023,-1.513838768005371,-0.19175104796886444,19.25,0.0,2.261996269226074,-1.4698505401611328,-0.19175104796886444,16.5,0.0,2.4261474609375,-1.5513896942138672,-1.1505062878131866,16.25,0.0,2.584218978881836,-1.6164779663085938,-1.342257335782051,14.0,0.0,2.796292304992676,-0.8969306945800781,0.0,19.75,0.0,2.6793479919433594,-0.26679039001464844,0.0,22.0,0.0,2.568840980529785,-0.12946128845214844,0.0,25.0,,,,,,,,,,,,,,,,,,,,,,,,,,,,,,,,,,,,,,,,
0.0,8.309208356094278e-13,2.0282909870147705,-1.2057418823242188,9.049808645522628e-12,-1.7278317213058472,-1.181153416633606,1.122201030018255e-11,-1.4536504745483398,-0.6641139388084412,0.0,1.8950700759887695,-1.1397600173950195,-0.7670041918754578,18.5,0.0,1.980900764465332,-1.2209415435791016,-0.7670041918754578,17.75,0.0,2.6750564575195312,-0.3104209899902344,0.0,22.0,0.0,2.5638341903686523,-0.14412403106689453,0.0,25.0,,,,,,,,,,,,,,,,,,,,,,,,,,,,,,,,,,,,,,,,,,,,,,,,,,,,,,,,,,,,,,,,,
0.0,1.4451975857351917e-12,1.8639636039733887,-1.3764195442199707,9.700789650735064e-12,-1.8211239576339722,-1.3849443197250366,1.091579431011791e-11,-1.3609497547149658,-0.8297446966171265,0.0,1.6182661056518555,-1.1612176895141602,0.19175104796886444,13.25,0.0,1.7845630645751953,-1.2123584747314453,-0.19175104796886444,16.75,0.0,1.9397735595703125,-1.371145248413086,-0.5752531439065933,14.25,0.0,2.087831497192383,-1.5063285827636719,-0.5752531439065933,13.5,0.0,2.3163557052612305,-1.3850927352905273,-0.19175104796886444,13.25,0.0,2.9865503311157227,-1.2756586074829102,0.0,19.25,0.0,3.072381019592285,-1.3375282287597656,0.0,15.5,0.0,2.6521682739257812,-0.39589405059814453,0.0,23.75,0.0,2.557039260864258,-0.19347667694091797,0.0,24.75,,,,,,,,,,,,,,,,,,,,,,,,,,,,,,,,,,,,,,,,
0.0,2.028192934780404e-12,1.6895756721496582,-1.5135289430618286,1.0188667617927472e-11,-1.907400131225586,-1.497190237045288,1.0520710171102454e-11,-1.2830055952072144,-0.892123281955719,0.0,1.6329288482666016,-1.280665397644043,0.3835020959377289,18.25,0.0,1.6772747039794922,-1.3922452926635742,-0.3835020959377289,24.25,0.0,1.5810728073120117,-1.1286735534667969,0.3835020959377289,13.5,0.0,1.8292665481567383,-1.3546943664550781,-0.3835020959377289,20.5,0.0,2.907872200012207,-1.6869306564331055,0.0,12.75,0.0,2.859950065612793,-1.5038251876831055,0.0,16.25,,,,,,,,,,,,,,,,,,,,,,,,,,,,,,,,,,,,,,,,,,,,,,,,,,,,,,,
0.0,2.6561509068601108e-12,1.5888155698776245,-1.6135410070419312,1.0644858258745948e-11,-1.8495546579360962,-1.515154242515564,1.0127784028091114e-11,-1.0801767110824585,-0.8557758927345276,0.0,1.547098159790039,-1.3021230697631836,-0.19175104796886444,13.0,0.0,2.316713333129883,-1.30462646484375,-0.19175104796886444,13.25,0.0,2.4172067642211914,-1.28173828125,0.19175104796886444,14.0,0.0,2.842426300048828,-1.5628337860107422,0.0,13.25,,,,,,,,,,,,,,,,,,,,,,,,,,,,,,,,,,,,,,,,,,,,,,,,,,,,,,,,,,,,,,,,,
0.0,2.709235179948477e-12,1.5462278127670288,-1.651918888092041,1.023728844751215e-11,-1.663635015487671,-1.4353433847427368,9.201325465446608e-12,-0.7660651206970215,-0.7502134442329407,0.0,1.636505126953125,-1.3446807861328125,-0.19175104796886444,21.5,0.0,1.7255544662475586,-1.5285015106201172,0.19175104796886444,16.75,0.0,2.033114433288574,-1.5392303466796875,0.19175104796886444,12.5,0.0,1.582503318786621,-1.087188720703125,-0.19175104796886444,14.5,0.0,1.638650894165039,-1.1404752731323242,-0.19175104796886444,18.25,0.0,2.237677574157715,-1.4891624450683594,0.19175104796886444,13.25,,,,,,,,,,,,,,,,,,,,,,,,,,,,,,,,,,,,,,,,,,,,,,,,,,,,,,,
0.0,2.825853700344494e-12,1.5727554559707642,-1.6860686540603638,9.91252305931889e-12,-1.3486597537994385,-1.3748588562011719,8.397976758445225e-12,-0.34830984473228455,-0.6893268823623657,0.0,1.6179084777832031,-1.100778579711914,0.19175104796886444,12.25,0.0,1.749873161315918,-1.134037971496582,0.19175104796886444,16.5,0.0,1.8407106399536133,-1.282811164855957,0.19175104796886444,26.0,0.0,1.9083023071289062,-1.3332366943359375,0.19175104796886444,27.0,0.0,2.033829689025879,-1.3164281845092773,0.19175104796886444,19.5,0.0,2.292752265930176,-1.267075538635254,0.19175104796886444,12.5,0.0,2.110719680786133,-1.372218132019043,0.0,16.75,0.0,1.7638206481933594,-1.0657310485839844,0.0,14.75,0.0,2.3345947265625,-1.3922452926635742,0.0,17.25,,,,,,,,,,,,,,,,,,,,,,,,,,,,,,,,,,,,,,,,
0.0,3.3083943570821894e-12,1.5200636386871338,-1.751458764076233,1.0024659054252982e-11,-1.2132800817489624,-1.3225494623184204,7.922244457669869e-12,-0.17409682273864746,-0.5871444344520569,0.0,1.857161521911621,-1.4255046844482422,0.19175104796886444,14.25,0.0,1.6776323318481445,-1.0782480239868164,-0.19175104796886444,12.5,0.0,1.7559528350830078,-1.257777214050293,0.19175104796886444,14.75,0.0,1.6139745712280273,-1.259922981262207,0.0,16.25,0.0,2.0531415939331055,-1.444101333618164,0.0,16.0,0.0,2.241969108581543,-1.4655590057373047,0.0,15.0,,,,,,,,,,,,,,,,,,,,,,,,,,,,,,,,,,,,,,,,,,,,,,,,,,,,,,,
0.0,-4.107599134960116e-13,3.0869736671447754,-0.45063766837120056,-6.913918222661852e-13,-0.3954883813858032,-0.5528587698936462,-1.7644517574452734e-13,-0.3403116464614868,-0.6471956968307495,0.0,3.168940544128418,-1.083970069885254,-0.19175104796886444,18.0,0.0,3.2404661178588867,-1.0085105895996094,-0.19175104796886444,17.25,0.0,2.9239654541015625,-0.027179718017578125,-0.19175104796886444,17.25,0.0,3.062725067138672,0.03933906555175781,-0.3835020959377289,15.25,0.0,2.8045177459716797,0.38444995880126953,-0.19175104796886444,16.25,0.0,3.219723701477051,-0.6183385848999023,0.0,24.75,0.0,3.3409595489501953,-0.7528066635131836,0.0,23.25,,,,,,,,,,,,,,,,,,,,,,,,,,,,,,,,,,,,,,,,,,,,,,,,,,
0.0,-4.078498606549519e-13,3.0526046752929688,-0.48314720392227173,-6.218500649309011e-13,-0.4131125509738922,-0.5759555101394653,-1.2365585985718575e-13,-0.3201853334903717,-0.6138132214546204,0.0,3.107786178588867,-0.8454322814941406,-0.19175104796886444,16.25,0.0,3.071308135986328,-0.5997419357299805,-0.19175104796886444,18.0,0.0,2.890348434448242,0.34618377685546875,-0.3835020959377289,16.75,0.0,2.7762651443481445,0.45490264892578125,-0.3835020959377289,16.5,0.0,3.328084945678711,-0.8511543273925781,0.0,24.25,0.0,3.2050609588623047,-0.7206201553344727,0.0,24.5,,,,,,,,,,,,,,,,,,,,,,,,,,,,,,,,,,,,,,,,,,,,,,,,,,,,,,,
0.0,-3.3728824854611927e-13,3.0094239711761475,-0.5376384854316711,-4.744497438154138e-13,-0.43991783261299133,-0.6288958191871643,-2.695781965711408e-14,-0.3097512722015381,-0.6081647276878357,0.0,3.0051469802856445,-1.4190673828125,-0.19175104796886444,21.25,0.0,3.032684326171875,-1.4973878860473633,-0.19175104796886444,18.25,0.0,3.0634403228759766,-0.8096694946289062,-0.19175104796886444,16.75,0.0,2.7283430099487305,0.1552104949951172,-0.3835020959377289,16.0,0.0,2.7555227279663086,0.15985965728759766,-0.3835020959377289,21.25,0.0,2.832770347595215,0.14698505401611328,-0.3835020959377289,17.25,0.0,3.201127052307129,-0.7857084274291992,0.0,25.0,0.0,3.294825553894043,-0.9255409240722656,0.0,23.5,,,,,,,,,,,,,,,,,,,,,,,,,,,,,,,,,,,,,,,,,,,,,
0.0,-3.091955131599017e-13,2.9863033294677734,-0.5976088643074036,-3.85876145489808e-13,-0.44421300292015076,-0.6774866580963135,2.855329091656228e-14,-0.2943577468395233,-0.5965558886528015,0.0,3.153204917907715,-1.1587142944335938,-0.3835020959377289,17.5,0.0,3.1818151473999023,-0.7807016372680664,-0.3835020959377289,21.75,0.0,3.1664371490478516,-0.5832910537719727,-0.3835020959377289,20.0,0.0,2.755880355834961,0.2206563949584961,-0.3835020959377289,14.25,0.0,3.196120262145996,-0.8200407028198242,0.0,25.5,0.0,3.084897994995117,-0.3858804702758789,0.0,24.25,0.0,2.8771162033081055,0.23496150970458984,0.0,20.75,,,,,,,,,,,,,,,,,,,,,,,,,,,,,,,,,,,,,,,,,,,,,,,,,,
0.0,-2.7735214298829636e-13,2.9602086544036865,-0.6414640545845032,-2.9780957431016497e-13,-0.4535970091819763,-0.6897153258323669,8.048237369519956e-14,-0.2886781096458435,-0.5548775792121887,0.0,3.1557083129882812,-1.1976957321166992,-0.5752531439065933,14.0,0.0,3.143906593322754,-0.8493661880493164,-0.3835020959377289,18.0,0.0,3.0738115310668945,-0.6633996963500977,-0.3835020959377289,18.5,0.0,2.830624580383301,0.1283884048461914,-0.3835020959377289,18.5,0.0,2.577066421508789,0.2721548080444336,-0.3835020959377289,13.0,0.0,2.6400089263916016,0.33152103424072266,-0.3835020959377289,22.5,0.0,2.67791748046875,0.33974647521972656,-0.5752531439065933,23.0,,,,,,,,,,,,,,,,,,,,,,,,,,,,,,,,,,,,,,,,,,,,,,,,,,
0.0,-2.3046966895687304e-13,2.9074881076812744,-0.6666666269302368,-1.9683296062934091e-13,-0.5098150968551636,-0.6622272729873657,1.372952451597978e-13,-0.3349127769470215,-0.4803367257118225,0.0,3.0562877655029297,-1.4744997024536133,-0.5752531439065933,13.5,0.0,2.891421318054199,-1.2134313583374023,-0.5752531439065933,22.0,0.0,2.966165542602539,-1.2488365173339844,-0.5752531439065933,16.5,0.0,2.695798873901367,0.08726119995117188,-0.5752531439065933,22.5,0.0,2.7140378952026367,0.09012222290039062,-0.3835020959377289,25.25,0.0,2.7916431427001953,0.3097057342529297,-0.3835020959377289,19.75,0.0,3.155350685119629,-0.9598731994628906,0.0,23.75,0.0,3.200054168701172,-1.1866092681884766,0.0,18.5,,,,,,,,,,,,,,,,,,,,,,,,,,,,,,,,,,,,,,,,,,,,,
0.0,-1.7045143508448435e-13,2.845991849899292,-0.6566653847694397,-8.644005785674383e-14,-0.5835975408554077,-0.5713915824890137,1.9651760687494635e-13,-0.40385615825653076,-0.35611188411712646,0.0,2.93576717376709,-1.1769533157348633,-0.3835020959377289,20.5,0.0,3.051280975341797,-1.3622045516967773,-0.3835020959377289,13.5,0.0,2.850651741027832,-0.8826255798339844,-0.3835020959377289,25.5,0.0,2.8946399688720703,-1.0739564895629883,-0.3835020959377289,27.5,0.0,2.7219057083129883,-0.10442733764648438,-0.9587552398443222,25.75,0.0,2.6324987411499023,0.042557716369628906,-0.9587552398443222,25.25,0.0,2.555251121520996,0.13625621795654297,-0.9587552398443222,18.75,0.0,3.2819509506225586,-1.3496875762939453,0.0,13.75,,,,,,,,,,,,,,,,,,,,,,,,,,,,,,,,,,,,,,,,,,,,,
0.0,-1.1982475016554528e-13,2.7614567279815674,-0.6256446242332458,5.25953927762654e-15,-0.7123337984085083,-0.43820661306381226,2.4121004672805757e-13,-0.5446256399154663,-0.1959889680147171,0.0,2.8753280639648438,-1.110076904296875,-0.7670041918754578,22.0,0.0,2.951502799987793,-1.2334585189819336,-0.7670041918754578,17.75,0.0,3.060579299926758,-1.383662223815918,0.19175104796886444,13.0,0.0,2.7723312377929688,-0.8246898651123047,-0.19175104796886444,23.25,0.0,2.528071403503418,-0.08475780487060547,-1.5340083837509155,24.75,0.0,2.581000328063965,-0.11658668518066406,-0.9587552398443222,28.75,0.0,2.651810646057129,-0.2485513687133789,-1.5340083837509155,26.5,0.0,2.415776252746582,0.05900859832763672,-1.5340083837509155,13.25,0.0,3.1725168228149414,-1.5621185302734375,0.0,12.5,0.0,3.1249523162841797,-1.268148422241211,0.0,17.75,0.0,2.8481483459472656,-0.016450881958007812,0.0,23.0,,,,,,,,,,,,,,,,,,,,,,,,,,,,,,
0.0,-8.510064126911882e-14,2.6637344360351562,-0.6643230319023132,7.066116219705751e-14,-0.8479152917861938,-0.43110954761505127,2.671505052766199e-13,-0.6674669981002808,-0.15751364827156067,0.0,2.696871757507324,-1.8475055694580078,-0.19175104796886444,19.75,0.0,2.875685691833496,-1.8421411514282227,-0.9587552398443222,18.5,0.0,2.941131591796875,-1.9916296005249023,-0.9587552398443222,15.0,0.0,2.699732780456543,-1.5292167663574219,-0.19175104796886444,19.25,0.0,2.7480125427246094,-0.9992122650146484,-0.3835020959377289,21.0,0.0,2.660036087036133,-0.6862878799438477,-0.3835020959377289,21.25,0.0,2.3277997970581055,-0.07903575897216797,-1.72575943171978,20.25,0.0,2.5044679641723633,-0.22423267364501953,-1.72575943171978,21.75,0.0,2.3975372314453125,-0.054001808166503906,-1.72575943171978,23.25,0.0,3.1789541244506836,-1.5635490417480469,0.0,12.5,0.0,3.0916929244995117,-1.3614892959594727,0.0,17.5,0.0,2.850651741027832,-0.6791353225708008,0.0,24.0,,,,,,,,,,,,,,,,,,,,,,,,,
0.0,-5.247009966270755e-14,2.4981272220611572,-0.7730013728141785,1.2755836426188438e-13,-1.1564360857009888,-0.5092528462409973,2.866247549634243e-13,-1.0178439617156982,-0.16403423249721527,0.0,2.6586055755615234,-1.5985965728759766,-1.9175104796886444,17.25,0.0,2.7637481689453125,-1.7091035842895508,-1.9175104796886444,17.5,0.0,2.9211044311523438,-1.7130374908447266,-1.342257335782051,14.5,0.0,2.6121139526367188,-1.3543367385864258,-1.9175104796886444,16.0,0.0,2.3113489151000977,-0.8718967437744141,-1.1505062878131866,19.5,0.0,2.541661262512207,-1.0968446731567383,-1.9175104796886444,17.5,0.0,2.2122859954833984,-0.5500316619873047,-1.342257335782051,27.25,0.0,2.182602882385254,-0.4595518112182617,-1.342257335782051,28.5,0.0,2.140045166015625,-0.2785921096801758,-1.72575943171978,12.0,0.0,3.161787986755371,-1.626133918762207,0.0,13.25,0.0,3.0916929244995117,-1.3511180877685547,0.0,18.25,0.0,2.781987190246582,-0.9495019912719727,0.0,20.0,,,,,,,,,,,,,,,,,,,,,,,,,
0.0,-2.6154964560256774e-14,2.3910939693450928,-0.9459449648857117,1.7254761801224067e-13,-1.2189444303512573,-0.7584291100502014,2.9720616159106816e-13,-0.9471650719642639,-0.3859514594078064,0.0,2.7025938034057617,-1.495957374572754,-0.7670041918754578,19.5,0.0,2.778768539428711,-1.589655876159668,-0.19175104796886444,17.25,0.0,2.224445343017578,-1.1268854141235352,-2.3010125756263733,16.25,0.0,2.5212764739990234,-1.2023448944091797,-0.7670041918754578,12.75,0.0,2.678990364074707,-1.3031959533691406,-0.7670041918754578,17.5,0.0,2.9686689376831055,-1.593947410583496,-0.19175104796886444,12.5,0.0,2.0842552185058594,-0.8955001831054688,-0.19175104796886444,23.5,0.0,2.033829689025879,-0.7495880126953125,-0.19175104796886444,27.75,0.0,3.2132863998413086,-1.5388727188110352,0.0,13.25,0.0,2.7605295181274414,-1.0113716125488281,0.0,18.0,,,,,,,,,,,,,,,,,,,,,,,,,,,,,,,,,,,
0.0,-6.572483121034542e-15,2.215911626815796,-1.1392408609390259,2.028570589502135e-13,-1.4355093240737915,-0.9824819564819336,2.976364001181647e-13,-1.0989223718643188,-0.5287938117980957,0.0,1.7931461334228516,-1.3936758041381836,-0.19175104796886444,21.0,0.0,2.009868621826172,-1.5671253204345703,-1.5340083837509155,19.25,0.0,1.9283294677734375,-1.454472541809082,-1.5340083837509155,21.75,0.0,2.1736621856689453,-1.6143321990966797,-1.9175104796886444,16.25,0.0,2.4121999740600586,-1.5478134155273438,-1.9175104796886444,16.5,0.0,2.581000328063965,-1.5971660614013672,0.19175104796886444,13.25,0.0,2.7379989624023438,-1.1050701141357422,0.0,19.5,,,,,,,,,,,,,,,,,,,,,,,,,,,,,,,,,,,,,,,,,,,,,,,,,,
0.0,1.2841171946305699e-14,2.048553228378296,-1.2544728517532349,2.2917000870766036e-13,-1.5829249620437622,-1.0545580387115479,2.9533293128755633e-13,-1.1424462795257568,-0.5391008257865906,0.0,1.8128156661987305,-1.267075538635254,0.19175104796886444,19.0,0.0,1.936197280883789,-1.3439655303955078,-1.9175104796886444,17.0,0.0,2.0227432250976562,-1.4491081237792969,-1.9175104796886444,13.0,0.0,2.729058265686035,-1.1086463928222656,0.0,19.5,,,,,,,,,,,,,,,,,,,,,,,,,,,,,,,,,,,,,,,,,,,,,,,,,,,,,,,,,,,,,,,,,
0.0,2.941649541684556e-14,1.8768328428268433,-1.3640698194503784,2.4807692250265745e-13,-1.685549020767212,-1.1385164260864258,2.8837563305177116e-13,-1.1045820713043213,-0.5898897647857666,0.0,1.5882253646850586,-1.0617971420288086,0.3835020959377289,17.75,0.0,1.657247543334961,-1.1529922485351562,0.3835020959377289,20.25,0.0,1.7402172088623047,-1.2545585632324219,-0.19175104796886444,25.5,0.0,1.868605613708496,-1.296401023864746,-0.5752531439065933,21.25,0.0,2.029895782470703,-1.330733299255371,-0.5752531439065933,12.25,,,,,,,,,,,,,,,,,,,,,,,,,,,,,,,,,,,,,,,,,,,,,,,,,,,,,,,,,,,,
0.0,4.749865323110114e-14,1.7228847742080688,-1.4501521587371826,2.6567298166101094e-13,-1.7489266395568848,-1.1553508043289185,2.8094836027926784e-13,-1.0485786199569702,-0.5653175711631775,0.0,1.658320426940918,-1.3060569763183594,-0.3835020959377289,14.5,0.0,1.6536712646484375,-1.1726617813110352,-0.3835020959377289,14.0,0.0,1.9873380661010742,-1.2398958206176758,0.19175104796886444,12.0,,,,,,,,,,,,,,,,,,,,,,,,,,,,,,,,,,,,,,,,,,,,,,,,,,,,,,,,,,,,,,,,,,,,,,
0.0,6.700517826132776e-14,1.5870037078857422,-1.532602310180664,2.822127026427118e-13,-1.7692636251449585,-1.1575652360916138,2.7334544675482186e-13,-0.9614753127098083,-0.5278333425521851,0.0,1.8442869186401367,-1.2981891632080078,-0.19175104796886444,18.5,0.0,1.8521547317504883,-1.3225078582763672,-0.19175104796886444,15.75,0.0,2.089977264404297,-1.3686418533325195,0.0,16.5,0.0,2.8499364852905273,-1.5403032302856445,0.0,14.75,,,,,,,,,,,,,,,,,,,,,,,,,,,,,,,,,,,,,,,,,,,,,,,,,,,,,,,,,,,,,,,,,
0.0,1.477510274840014e-16,2.949815511703491,0.15142424404621124,-7.976777138463315e-16,-0.5015127658843994,0.7462059855461121,-1.0901860367413824e-15,-0.8957710266113281,0.05586961656808853,0.0,3.242611885070801,-1.479506492614746,-0.19175104796886444,14.5,0.0,3.268003463745117,-1.1447668075561523,-0.19175104796886444,17.0,0.0,2.9854774475097656,-0.8121728897094727,-0.3835020959377289,18.5,0.0,3.1821727752685547,-0.859379768371582,-0.3835020959377289,17.25,0.0,2.901792526245117,-0.1863241195678711,-0.19175104796886444,19.25,0.0,2.821683883666992,-0.06186962127685547,-0.9587552398443222,18.25,0.0,2.7816295623779297,0.06186962127685547,0.0,19.0,0.0,2.8470754623413086,0.0661611557006836,0.0,28.25,0.0,2.8781890869140625,0.023603439331054688,0.0,29.5,,,,,,,,,,,,,,,,,,,,,,,,,,,,,,,,,,,,,,,,
0.0,4.9548846610865404e-17,2.8479793071746826,0.2402694970369339,-9.210368394273693e-16,-0.6594114899635315,0.769748330116272,-1.0985726158312657e-15,-0.9522792100906372,0.06901075690984726,0.0,3.2061338424682617,-2.4390220642089844,0.3835020959377289,12.5,0.0,3.231167793273926,-1.4702081680297852,-0.5752531439065933,12.0,0.0,2.809882164001465,-1.1758804321289062,-0.3835020959377289,15.5,0.0,2.99835205078125,-1.1301040649414062,-0.5752531439065933,23.5,0.0,3.1042098999023438,-1.2874603271484375,-0.5752531439065933,17.75,0.0,3.0584335327148438,-1.1268854141235352,-0.5752531439065933,22.0,0.0,2.6400089263916016,0.2052783966064453,-0.5752531439065933,22.0,0.0,2.5538206100463867,0.2900362014770508,-0.5752531439065933,16.25,0.0,2.6078224182128906,0.26535987854003906,-0.5752531439065933,23.25,0.0,2.8731822967529297,0.015377998352050781,0.0,29.25,,,,,,,,,,,,,,,,,,,,,,,,,,,,,,,,,,,
0.0,-3.7026433941388486e-17,2.756413459777832,0.23002386093139648,-1.0177683196411656e-15,-0.7829139828681946,0.6368933320045471,-1.0905908126110516e-15,-0.9761476516723633,-0.046207673847675323,0.0,2.968311309814453,-1.1676549911499023,-0.3835020959377289,14.5,0.0,2.886056900024414,-1.0732412338256836,-0.3835020959377289,22.0,0.0,2.8406381607055664,-0.8332729339599609,-0.7670041918754578,19.75,0.0,2.604961395263672,0.048279762268066406,-0.7670041918754578,22.25,0.0,2.681136131286621,-0.08475780487060547,-0.7670041918754578,20.75,0.0,2.545595169067383,0.11980533599853516,-0.7670041918754578,16.5,0.0,3.1839609146118164,-0.9055137634277344,0.0,23.25,0.0,3.279447555541992,-0.9284019470214844,0.0,21.25,0.0,2.8002262115478516,0.03612041473388672,0.0,28.0,0.0,2.876758575439453,-0.051856040954589844,0.0,28.25,,,,,,,,,,,,,,,,,,,,,,,,,,,,,,,,,,,
0.0,-1.0442326729380441e-16,2.6782634258270264,0.197377011179924,-1.0817164484226683e-15,-0.8610453605651855,0.48201942443847656,-1.0639047219704496e-15,-0.9502607583999634,-0.1676611304283142,0.0,3.095269203186035,-1.520991325378418,-0.5752531439065933,14.75,0.0,3.186821937561035,-1.6268491744995117,-0.3835020959377289,13.25,0.0,2.913951873779297,-1.1976957321166992,-0.7670041918754578,15.0,0.0,3.069162368774414,-1.2406110763549805,-0.5752531439065933,14.5,0.0,2.8123855590820312,-0.13267993927001953,-0.7670041918754578,16.0,0.0,2.5817155838012695,0.04863739013671875,-0.7670041918754578,23.0,0.0,2.6679039001464844,0.020384788513183594,-0.7670041918754578,22.0,0.0,2.501964569091797,0.11444091796875,-0.7670041918754578,20.5,0.0,3.268003463745117,-0.9988546371459961,0.0,20.0,0.0,3.1696557998657227,-0.9316205978393555,0.0,20.75,,,,,,,,,,,,,,,,,,,,,,,,,,,,,,,,,,,
0.0,-1.6141700411544308e-16,2.596147060394287,0.14155873656272888,-1.1246029970915744e-15,-0.9087190628051758,0.3040023446083069,-1.026483441635465e-15,-0.8792716860771179,-0.29681795835494995,0.0,2.93576717376709,-1.502394676208496,-0.5752531439065933,18.75,0.0,3.028392791748047,-1.4952421188354492,-0.5752531439065933,16.25,0.0,2.754807472229004,-0.8997917175292969,-0.7670041918754578,24.25,0.0,2.910017967224121,-0.8568763732910156,-0.7670041918754578,14.75,0.0,2.6990175247192383,-0.5757808685302734,-0.19175104796886444,22.25,0.0,2.4901628494262695,-0.05435943603515625,-0.7670041918754578,24.25,0.0,2.336740493774414,0.14698505401611328,-0.7670041918754578,23.25,0.0,2.3821592330932617,0.11837482452392578,-0.7670041918754578,26.75,0.0,3.183603286743164,-1.335740089416504,0.0,18.75,0.0,3.2472610473632812,-1.4290809631347656,0.0,16.25,,,,,,,,,,,,,,,,,,,,,,,,,,,,,,,,,,,
0.0,-2.0142143053708783e-16,2.491424083709717,0.037292271852493286,-1.137049299218529e-15,-1.0140166282653809,0.053513288497924805,-9.718571221967328e-16,-0.9013452529907227,-0.4824489951133728,0.0,2.866387367248535,-1.6576051712036133,-0.9587552398443222,21.75,0.0,2.8867721557617188,-1.782059669494629,-0.9587552398443222,21.0,0.0,2.9768943786621094,-1.8489360809326172,-0.7670041918754578,15.0,0.0,2.893209457397461,-1.2760162353515625,-0.5752531439065933,17.5,0.0,2.8159618377685547,-0.9634494781494141,-0.5752531439065933,15.0,0.0,2.67183780670166,-0.7138252258300781,-1.1505062878131866,16.0,0.0,2.3238658905029297,-0.1437664031982422,-1.1505062878131866,21.0,0.0,2.4819374084472656,-0.19168853759765625,-1.1505062878131866,17.75,0.0,2.2280216217041016,0.006079673767089844,-1.1505062878131866,22.25,0.0,2.8460025787353516,-0.20456314086914062,0.0,21.75,,,,,,,,,,,,,,,,,,,,,,,,,,,,,,,,,,,
0.0,-2.3448389256039155e-16,2.365135669708252,-0.11413780599832535,-1.1327804649226042e-15,-1.1429660320281982,-0.25694209337234497,-9.094267705775914e-16,-0.9477102756500244,-0.7055291533470154,0.0,2.8352737426757812,-1.6161203384399414,-0.5752531439065933,14.25,0.0,2.878546714782715,-1.821756362915039,-1.1505062878131866,13.0,0.0,2.6407241821289062,-1.21307373046875,-0.5752531439065933,15.75,0.0,2.730131149291992,-1.4147758483886719,-0.5752531439065933,14.25,0.0,2.5452375411987305,-1.0721683502197266,-0.5752531439065933,18.0,0.0,2.365708351135254,-0.7971525192260742,-1.1505062878131866,18.75,0.0,2.2509098052978516,-0.3705024719238281,-1.1505062878131866,25.25,0.0,2.199411392211914,-0.2810955047607422,-1.5340083837509155,27.0,0.0,2.1457672119140625,-0.1823902130126953,-1.5340083837509155,14.0,0.0,3.128170967102051,-1.6629695892333984,0.0,15.5,,,,,,,,,,,,,,,,,,,,,,,,,,,,,,,,,,,
0.0,-3.0350378993225697e-16,2.245882272720337,-0.29176875948905945,-1.1651521583425323e-15,-1.2309575080871582,-0.5857592821121216,-8.730099124993728e-16,-0.9390260577201843,-0.9277755618095398,0.0,2.6807785034179688,-1.5925168991088867,-0.19175104796886444,18.25,0.0,2.854585647583008,-1.5935897827148438,-0.19175104796886444,19.75,0.0,2.950429916381836,-1.6025304794311523,-0.19175104796886444,17.0,0.0,2.2165775299072266,-1.1758804321289062,-1.72575943171978,23.0,0.0,2.407550811767578,-1.2781620025634766,-1.72575943171978,17.5,0.0,2.5620460510253906,-1.3747215270996094,-1.72575943171978,17.5,0.0,2.0366907119750977,-0.7910728454589844,-1.1505062878131866,31.5,0.0,2.0956993103027344,-0.903010368347168,-1.1505062878131866,27.25,,,,,,,,,,,,,,,,,,,,,,,,,,,,,,,,,,,,,,,,,,,,,
0.0,-3.1537289204521706e-16,2.228994369506836,-0.7833801507949829,-1.1219939238557943e-15,-1.1266438961029053,-1.4311068058013916,-7.920877199109268e-16,-0.7441631555557251,-1.5769920349121094,0.0,1.8264055252075195,-1.3099908828735352,-0.19175104796886444,25.25,0.0,1.9404888153076172,-1.2974739074707031,0.19175104796886444,25.25,0.0,2.1257400512695312,-1.2778043746948242,0.19175104796886444,16.5,0.0,2.309560775756836,-1.4280080795288086,-1.1505062878131866,13.5,0.0,2.4880170822143555,-1.501321792602539,-1.1505062878131866,14.5,0.0,2.643585205078125,-1.5714168548583984,-1.1505062878131866,13.25,0.0,2.834200859069824,-1.6082525253295898,-0.19175104796886444,12.75,0.0,3.1310319900512695,-1.6618967056274414,0.0,14.0,,,,,,,,,,,,,,,,,,,,,,,,,,,,,,,,,,,,,,,,,,,,,
0.0,-3.372123395709687e-16,2.0854012966156006,-1.0449007749557495,-1.0828078503752054e-15,-1.2727371454238892,-1.772257685661316,-7.169927963622351e-16,-0.8361648917198181,-1.7255265712738037,0.0,1.8804073333740234,-1.3017654418945312,-0.3835020959377289,17.0,0.0,1.992344856262207,-1.352548599243164,-0.3835020959377289,19.75,0.0,2.089262008666992,-1.3947486877441406,-0.3835020959377289,15.75,0.0,2.1768808364868164,-1.5156269073486328,-2.8762657195329666,12.5,0.0,3.102421760559082,-1.705169677734375,0.0,14.0,0.0,2.1675825119018555,-0.5214214324951172,0.0,29.25,,,,,,,,,,,,,,,,,,,,,,,,,,,,,,,,,,,,,,,,,,,,,,,,,,,,,,,
0.0,-3.4876263965840596e-16,1.932403326034546,-1.2332520484924316,-1.028457134281686e-15,-1.3970746994018555,-1.944000482559204,-6.375525408545697e-16,-0.8794450163841248,-1.720260500907898,0.0,1.7158985137939453,-1.1833906173706055,0.3835020959377289,14.5,0.0,1.8106698989868164,-1.2398958206176758,-0.5752531439065933,24.0,0.0,1.9243955612182617,-1.260995864868164,-0.3835020959377289,22.25,0.0,2.040982246398926,-1.3693571090698242,-0.3835020959377289,14.0,0.0,2.158999443054199,-0.5500316619873047,0.0,29.0,,,,,,,,,,,,,,,,,,,,,,,,,,,,,,,,,,,,,,,,,,,,,,,,,,,,,,,,,,,,
0.0,-3.3095276609075943e-16,1.8091528415679932,-1.3541905879974365,-9.353349673352587e-16,-1.4533389806747437,-1.9528194665908813,-5.386058047859073e-16,-0.8553358912467957,-1.5668472051620483,0.0,1.6143321990966797,-1.200556755065918,-0.19175104796886444,13.0,0.0,1.6429424285888672,-1.2402534484863281,-0.19175104796886444,20.25,0.0,1.680135726928711,-1.2545585632324219,0.19175104796886444,26.25,0.0,1.8532276153564453,-1.2019872665405273,-0.5752531439065933,18.25,0.0,2.740144729614258,-1.0253190994262695,-0.5752531439065933,12.5,0.0,2.7691125869750977,-1.3854503631591797,0.0,15.75,0.0,2.146482467651367,-0.5736351013183594,0.0,29.25,,,,,,,,,,,,,,,,,,,,,,,,,,,,,,,,,,,,,,,,,,,,,,,,,,
0.0,-3.517673037503334e-16,1.6996198892593384,-1.4793882369995117,-8.934188007865508e-16,-1.4606590270996094,-1.9629740715026855,-4.783287167978048e-16,-0.7776245474815369,-1.4349855184555054,0.0,1.6118288040161133,-1.1540651321411133,-0.19175104796886444,13.75,0.0,1.7563104629516602,-1.1973381042480469,0.19175104796886444,16.75,0.0,2.0023584365844727,-1.1633634567260742,0.19175104796886444,14.25,0.0,1.9887685775756836,-1.1394023895263672,0.0,26.0,0.0,2.158999443054199,-1.2145042419433594,0.0,16.75,0.0,2.798795700073242,-1.7098188400268555,0.0,16.75,0.0,2.658963203430176,-1.2545585632324219,0.0,15.75,0.0,2.7333498001098633,-1.477360725402832,0.0,15.75,0.0,2.006649971008301,-0.8922815322875977,0.0,29.25,,,,,,,,,,,,,,,,,,,,,,,,,,,,,,,,,,,,,,,,
0.0,5.376556108357391e-19,2.86348819732666,-0.6949958205223083,-2.2184353717045437e-17,-0.47273051738739014,-0.5289084911346436,-2.7892728778635106e-17,-0.31280747056007385,-0.4141536355018616,0.0,2.8978586196899414,-1.3808012008666992,-0.19175104796886444,17.75,0.0,3.0155181884765625,-1.4955997467041016,-0.19175104796886444,12.5,0.0,2.868175506591797,-1.209855079650879,-0.19175104796886444,21.5,0.0,2.8334856033325195,-0.6437301635742188,-0.19175104796886444,19.0,0.0,2.706170082092285,-0.1283884048461914,-0.5752531439065933,22.0,0.0,2.636075019836426,-0.001430511474609375,-0.5752531439065933,21.5,0.0,2.542734146118164,0.15020370483398438,-0.5752531439065933,14.75,0.0,3.0351877212524414,-1.2309551239013672,0.0,25.0,0.0,3.0956268310546875,-1.3632774353027344,0.0,19.0,0.0,2.774477005004883,0.09298324584960938,0.0,24.75,,,,,,,,,,,,,,,,,,,,,,,,,,,,,,,,,,,
0.0,-1.2617444968511298e-18,2.813215970993042,-0.6654077768325806,-2.4241100259850363e-17,-0.5326868295669556,-0.4140269160270691,-2.7424140887791166e-17,-0.37108761072158813,-0.2710980176925659,0.0,3.040194511413574,-1.2356042861938477,-0.19175104796886444,17.25,0.0,3.12960147857666,-1.3375282287597656,-0.19175104796886444,17.0,0.0,2.9532909393310547,-1.026749610900879,-0.19175104796886444,18.75,0.0,2.8156042098999023,-0.6315708160400391,-0.19175104796886444,18.25,0.0,2.651095390319824,-0.11050701141357422,-1.342257335782051,22.5,0.0,2.533435821533203,-0.023603439331054688,-1.1505062878131866,21.0,0.0,2.5777816772460938,-0.023245811462402344,-1.1505062878131866,25.25,0.0,2.9740333557128906,-1.635432243347168,0.0,18.25,0.0,3.0258893966674805,-1.8088817596435547,0.0,13.75,0.0,2.525925636291504,0.19741058349609375,0.0,17.25,,,,,,,,,,,,,,,,,,,,,,,,,,,,,,,,,,,
0.0,-2.5391775079950935e-18,2.7580795288085938,-0.6460336446762085,-2.5305039816050768e-17,-0.6014253497123718,-0.32194608449935913,-2.6351560602912032e-17,-0.4360879957675934,-0.15832147002220154,0.0,3.2014846801757812,-1.6111135482788086,-0.19175104796886444,14.0,0.0,3.1614303588867188,-1.3654232025146484,-0.19175104796886444,15.25,0.0,2.9414892196655273,-0.925898551940918,-0.5752531439065933,16.0,0.0,3.097057342529297,-1.0439157485961914,-0.19175104796886444,15.25,0.0,2.7805566787719727,-0.8243322372436523,-0.9587552398443222,19.5,0.0,2.647519111633301,-0.331878662109375,-0.9587552398443222,21.75,0.0,2.3725032806396484,-0.14841556549072266,-1.1505062878131866,17.25,0.0,2.4622678756713867,-0.080108642578125,-0.9587552398443222,24.25,0.0,2.5277137756347656,-0.08404254913330078,-0.9587552398443222,25.5,0.0,3.003358840942383,-1.291036605834961,0.0,18.25,,,,,,,,,,,,,,,,,,,,,,,,,,,,,,,,,,,
0.0,-3.564078481981212e-18,2.6985416412353516,-0.6328318119049072,-2.5764156488880976e-17,-0.6762270927429199,-0.2443457394838333,-2.4945259262982054e-17,-0.5041428804397583,-0.0659148097038269,0.0,3.039121627807617,-1.6776323318481445,-0.7670041918754578,14.5,0.0,3.2401084899902344,-1.6189813613891602,-0.3835020959377289,13.5,0.0,3.052353858947754,-1.2302398681640625,-0.3835020959377289,13.25,0.0,2.827763557434082,-0.8604526519775391,-0.3835020959377289,12.25,0.0,2.9897689819335938,-0.8693933486938477,-0.5752531439065933,12.0,0.0,2.330660820007324,-0.09191036224365234,-1.1505062878131866,20.5,0.0,2.3932456970214844,-0.11014938354492188,-1.342257335782051,24.75,0.0,2.4493932723999023,-0.13017654418945312,-1.342257335782051,22.5,0.0,2.613186836242676,-0.24139881134033203,-0.3835020959377289,14.0,0.0,3.1903982162475586,-1.6061067581176758,0.0,16.0,0.0,2.990126609802246,-1.3393163681030273,0.0,18.5,0.0,2.7076005935668945,0.011801719665527344,0.0,25.25,,,,,,,,,,,,,,,,,,,,,,,,,
0.0,-4.6533723647272865e-18,2.607889413833618,-0.6840579509735107,-2.6063688514853778e-17,-0.8022927045822144,-0.28632351756095886,-2.350516263194561e-17,-0.6157025098800659,-0.08499523252248764,0.0,2.893209457397461,-1.5892982482910156,-0.7670041918754578,16.25,0.0,2.8488636016845703,-1.338958740234375,-0.7670041918754578,14.5,0.0,3.0448436737060547,-1.5932321548461914,-0.7670041918754578,16.0,0.0,3.2644271850585938,-1.4673471450805664,-0.7670041918754578,13.0,0.0,2.1522045135498047,-0.24211406707763672,-1.342257335782051,23.75,0.0,2.1032094955444336,-0.18453598022460938,-1.342257335782051,12.25,0.0,2.230525016784668,-0.20062923431396484,-1.342257335782051,19.25,0.0,3.2361745834350586,-1.5327930450439453,0.0,17.0,0.0,3.442525863647461,-1.4955997467041016,0.0,12.75,0.0,2.538442611694336,0.031113624572753906,0.0,26.75,,,,,,,,,,,,,,,,,,,,,,,,,,,,,,,,,,,
0.0,-5.70384087106196e-18,2.499685764312744,-0.7905880808830261,-2.6136419197393115e-17,-0.9079816341400146,-0.4370616376399994,-2.2017642082030275e-17,-0.654337465763092,-0.21199700236320496,0.0,2.933621406555176,-1.3393163681030273,-0.7670041918754578,14.75,0.0,2.105712890625,-0.7892847061157227,-0.3835020959377289,26.0,0.0,2.2333860397338867,-0.9641647338867188,-1.72575943171978,16.0,0.0,2.7387142181396484,-1.1626482009887695,-0.7670041918754578,15.75,0.0,2.8363466262817383,-1.1998414993286133,-0.7670041918754578,16.75,0.0,2.0595788955688477,-0.7649660110473633,-0.3835020959377289,29.25,0.0,3.4847259521484375,-1.4208555221557617,0.0,13.0,,,,,,,,,,,,,,,,,,,,,,,,,,,,,,,,,,,,,,,,,,,,,,,,,,
0.0,-6.282683252162786e-18,2.4074065685272217,-0.9900837540626526,-2.5421468795990057e-17,-0.9650764465332031,-0.7523335218429565,-2.0117738909532753e-17,-0.6239622831344604,-0.48520350456237793,0.0,1.8603801727294922,-1.1426210403442383,0.19175104796886444,21.5,0.0,2.967238426208496,-1.6407966613769531,-0.19175104796886444,17.25,0.0,2.1293163299560547,-1.0707378387451172,-1.1505062878131866,21.0,0.0,2.2269487380981445,-1.1551380157470703,-1.1505062878131866,16.5,0.0,2.619624137878418,-1.4083385467529297,-0.19175104796886444,14.75,0.0,2.8073787689208984,-1.4151334762573242,-0.19175104796886444,17.5,0.0,2.9050111770629883,-1.5288591384887695,-0.19175104796886444,18.75,0.0,3.435373306274414,-1.5292167663574219,0.0,12.0,,,,,,,,,,,,,,,,,,,,,,,,,,,,,,,,,,,,,,,,,,,,,
0.0,-6.786973912605739e-18,2.253885269165039,-1.1492741107940674,-2.4452532587502592e-17,-1.1258660554885864,-0.9479246735572815,-1.8146792502945503e-17,-0.7216706275939941,-0.612139105796814,0.0,1.784205436706543,-1.2280941009521484,-0.19175104796886444,24.25,0.0,2.119302749633789,-1.3936758041381836,-0.3835020959377289,17.5,0.0,2.270221710205078,-1.5149116516113281,-1.5340083837509155,16.5,0.0,1.9698143005371094,-1.248478889465332,-0.19175104796886444,21.25,0.0,2.447962760925293,-1.497030258178711,-1.5340083837509155,16.25,0.0,1.8128156661987305,-0.9380578994750977,-0.3835020959377289,14.75,0.0,2.0896196365356445,-0.765681266784668,0.0,28.25,,,,,,,,,,,,,,,,,,,,,,,,,,,,,,,,,,,,,,,,,,,,,,,,,,
0.0,-7.94935292478363e-18,2.103454351425171,-1.2726430892944336,-2.432984019596505e-17,-1.2696428298950195,-1.04520583152771,-1.6854299634774246e-17,-0.8041529655456543,-0.6327627897262573,0.0,1.9490718841552734,-1.5528202056884766,-1.5340083837509155,17.0,0.0,1.8718242645263672,-1.2835264205932617,0.19175104796886444,18.0,0.0,1.9179582595825195,-1.4466047286987305,-1.5340083837509155,20.25,0.0,1.976609230041504,-1.0006427764892578,0.0,28.75,0.0,2.8928518295288086,-1.2155771255493164,0.0,17.75,,,,,,,,,,,,,,,,,,,,,,,,,,,,,,,,,,,,,,,,,,,,,,,,,,,,,,,,,,,,
0.0,-8.364302288806569e-18,1.9652138948440552,-1.3849201202392578,-2.314989352193776e-17,-1.3321877717971802,-1.1431294679641724,-1.499736684073763e-17,-0.756959080696106,-0.6880887746810913,0.0,1.644730567932129,-1.0582208633422852,0.5752531439065933,16.5,0.0,1.7226934432983398,-1.1086463928222656,0.3835020959377289,21.0,0.0,1.765608787536621,-1.1873245239257812,0.3835020959377289,25.0,0.0,1.8224716186523438,-1.3250112533569336,-0.7670041918754578,19.25,0.0,1.9966363906860352,-0.950932502746582,0.0,28.75,0.0,2.8324127197265625,-1.3428926467895508,0.0,17.25,0.0,2.932906150817871,-1.4691352844238281,0.0,18.5,,,,,,,,,,,,,,,,,,,,,,,,,,,,,,,,,,,,,,,,,,,,,,,,,,
0.0,-8.4267990928074e-18,1.8383818864822388,-1.4536268711090088,-2.1482715960420807e-17,-1.3732093572616577,-1.136080026626587,-1.2942307746382311e-17,-0.7124581336975098,-0.6323586702346802,0.0,1.6139745712280273,-1.1000633239746094,-0.19175104796886444,15.5,0.0,1.7123222351074219,-1.1394023895263672,-0.19175104796886444,20.0,0.0,1.7538070678710938,-1.2359619140625,-0.19175104796886444,24.75,0.0,1.798868179321289,-1.3579130172729492,-0.19175104796886444,20.0,0.0,2.805948257446289,-1.3904571533203125,0.0,16.75,0.0,2.8989315032958984,-1.5238523483276367,0.0,17.5,0.0,2.0395517349243164,-0.8400678634643555,0.0,28.75,0.0,2.267003059387207,-0.9598731994628906,0.0,18.25,0.0,2.218008041381836,-0.6934404373168945,0.0,26.75,,,,,,,,,,,,,,,,,,,,,,,,,,,,,,,,,,,,,,,,
0.0,-4.737119580836273e-21,2.830153226852417,-0.7106174826622009,-1.2020349554724782e-20,-0.34589526057243347,-0.6589862704277039,-5.5935552452098285e-21,-0.23833245038986206,-0.35952427983283997,0.0,2.873539924621582,-0.9090900421142578,-0.3835020959377289,22.0,0.0,2.9468536376953125,-1.018524169921875,-0.3835020959377289,23.5,0.0,3.0455589294433594,-0.9906291961669922,-0.3835020959377289,18.75,0.0,3.2372474670410156,-0.9126663208007812,0.3835020959377289,13.75,0.0,2.518773078918457,-0.217437744140625,-0.3835020959377289,18.75,0.0,2.5577545166015625,-0.1780986785888672,-0.3835020959377289,22.5,0.0,2.694368362426758,-0.148773193359375,-0.3835020959377289,18.75,0.0,2.9897689819335938,-0.9942054748535156,0.0,28.0,0.0,3.0863285064697266,-0.9641647338867188,0.0,23.5,0.0,3.198981285095215,-0.9942054748535156,0.0,20.25,0.0,3.3195018768310547,-1.122593879699707,0.0,14.25,,,,,,,,,,,,,,,,,,,,,,,,,,,,,,
0.0,-4.2051632831951155e-21,2.7818045616149902,-0.6968364119529724,-1.0255033036437249e-20,-0.42843055725097656,-0.5336858034133911,-4.10072526851176e-21,-0.34113386273384094,-0.2040141373872757,0.0,3.035902976989746,-1.6819238662719727,-0.19175104796886444,13.75,0.0,2.845644950866699,-0.9208917617797852,-0.3835020959377289,20.25,0.0,2.9343366622924805,-0.8887052536010742,-0.3835020959377289,18.5,0.0,3.1442642211914062,-0.6501674652099609,-0.3835020959377289,13.5,0.0,2.3120641708374023,-0.29540061950683594,-1.9175104796886444,12.75,0.0,2.7337074279785156,-0.36513805389404297,-0.5752531439065933,17.25,0.0,2.4400949478149414,-0.11157989501953125,-0.5752531439065933,17.5,0.0,2.5513172149658203,-0.07152557373046875,-0.5752531439065933,18.25,0.0,2.954721450805664,-1.0510683059692383,0.0,26.0,0.0,3.048419952392578,-1.0639429092407227,0.0,21.5,0.0,3.1936168670654297,-1.086115837097168,0.0,18.75,,,,,,,,,,,,,,,,,,,,,,,,,,,,,,
0.0,-3.7461168173193986e-21,2.7279248237609863,-0.6989734768867493,-8.65106843638584e-21,-0.516567587852478,-0.4441257119178772,-2.796662713970016e-21,-0.43774691224098206,-0.09261897206306458,0.0,2.9604434967041016,-1.3453960418701172,-0.19175104796886444,19.0,0.0,3.0602216720581055,-1.386880874633789,-0.19175104796886444,15.5,0.0,2.8263330459594727,-1.0714530944824219,-0.3835020959377289,15.0,0.0,2.9053688049316406,-1.2137889862060547,-0.3835020959377289,17.5,0.0,2.720475196838379,-0.4602670669555664,-0.7670041918754578,13.25,0.0,2.246260643005371,-0.25069713592529297,-1.9175104796886444,17.25,0.0,2.387523651123047,0.0743865966796875,-0.7670041918754578,19.5,0.0,2.4826526641845703,0.10013580322265625,-0.7670041918754578,17.75,0.0,2.942204475402832,-1.0811090469360352,0.0,21.75,0.0,3.07309627532959,-1.008152961730957,0.0,21.25,0.0,3.1821727752685547,-1.1147260665893555,0.0,18.5,,,,,,,,,,,,,,,,,,,,,,,,,,,,,,
0.0,-3.447004188073032e-21,2.6807541847229004,-0.6553800702095032,-7.338041998580084e-21,-0.5682588815689087,-0.283901572227478,-1.759989523610306e-21,-0.47542619705200195,0.06607893109321594,0.0,2.7812719345092773,-1.1093616485595703,-0.3835020959377289,16.0,0.0,2.9178857803344727,-1.0482072830200195,-0.5752531439065933,17.25,0.0,3.0373334884643555,-1.0467767715454102,-0.3835020959377289,15.75,0.0,2.6922225952148438,-0.583648681640625,-0.3835020959377289,13.75,0.0,2.5080442428588867,-0.10192394256591797,-1.1505062878131866,18.5,0.0,2.295970916748047,0.06079673767089844,-0.9587552398443222,16.25,0.0,2.4050474166870117,0.07617473602294922,-0.9587552398443222,20.0,0.0,2.9436349868774414,-1.0682344436645508,0.0,22.25,0.0,3.056645393371582,-1.0156631469726562,0.0,22.0,0.0,3.1671524047851562,-1.0982751846313477,0.0,18.5,,,,,,,,,,,,,,,,,,,,,,,,,,,,,,,,,,,
0.0,-2.861741794897479e-21,2.581892490386963,-0.7182678580284119,-5.649678318860558e-21,-0.8038605451583862,-0.30011510848999023,-5.102909712530697e-22,-0.7777188420295715,0.08574927598237991,0.0,2.890348434448242,-1.9379854202270508,-0.9587552398443222,15.0,0.0,2.9851198196411133,-2.0678043365478516,-2.4927636235952377,16.25,0.0,3.1549930572509766,-2.0084381103515625,-2.4927636235952377,13.0,0.0,2.7136802673339844,-1.0986328125,-0.9587552398443222,14.0,0.0,2.8592348098754883,-1.1698007583618164,-2.109261527657509,15.75,0.0,2.979755401611328,-1.3010501861572266,-0.9587552398443222,15.25,0.0,2.629995346069336,-0.9530782699584961,-0.9587552398443222,13.0,0.0,2.5599002838134766,-0.504612922668457,-1.1505062878131866,13.75,0.0,2.1872520446777344,0.031828880310058594,-1.1505062878131866,19.25,0.0,2.3134946823120117,0.054717063903808594,-1.1505062878131866,16.25,0.0,3.1725168228149414,-1.2423992156982422,0.0,19.25,0.0,3.090977668762207,-0.972747802734375,0.0,20.25,0.0,2.8438568115234375,-0.8064508438110352,0.0,17.75,,,,,,,,,,,,,,,,,,,,
0.0,-2.5639832296177067e-21,2.4976792335510254,-0.8069605231285095,-4.4986589198737205e-21,-0.9017680883407593,-0.3958733379840851,2.8392015271021926e-22,-0.8091102838516235,-0.003467574715614319,0.0,3.013014793395996,-1.6443729400634766,-0.19175104796886444,15.25,0.0,3.0945539474487305,-1.7960071563720703,-0.19175104796886444,12.75,0.0,2.7648210525512695,-1.4677047729492188,-0.19175104796886444,16.25,0.0,2.8924942016601562,-1.5177726745605469,-0.19175104796886444,15.5,0.0,2.382516860961914,-0.8722543716430664,-1.5340083837509155,16.75,0.0,2.2433996200561523,-0.5382299423217773,-1.5340083837509155,17.75,0.0,2.099275588989258,-0.3472566604614258,-1.342257335782051,22.75,0.0,3.1585693359375,-2.029538154602051,0.0,15.25,,,,,,,,,,,,,,,,,,,,,,,,,,,,,,,,,,,,,,,,,,,,,
0.0,-2.1614788803055723e-21,2.3847992420196533,-0.9972308874130249,-3.2975643976718812e-21,-0.9764396548271179,-0.697437047958374,1.0497879208674753e-21,-0.7454249858856201,-0.29580157995224,0.0,2.4132728576660156,-1.5488862991333008,-1.5340083837509155,15.25,0.0,1.8703937530517578,-1.015305519104004,2.4927636235952377,27.75,0.0,2.0105838775634766,-1.131892204284668,2.4927636235952377,22.25,0.0,2.5985240936279297,-1.5692710876464844,-1.5340083837509155,13.0,0.0,2.2934675216674805,-1.146554946899414,-2.109261527657509,21.0,0.0,2.3900270462036133,-1.2774467468261719,-0.5752531439065933,14.75,0.0,3.0881166458129883,-1.6465187072753906,-0.19175104796886444,12.0,0.0,1.8929243087768555,-0.8286237716674805,-0.5752531439065933,15.25,0.0,3.165006637573242,-2.0284652709960938,0.0,13.5,0.0,3.0781030654907227,-1.89971923828125,0.0,15.75,0.0,3.05020809173584,-1.5842914581298828,0.0,16.0,0.0,3.0308961868286133,-1.085042953491211,0.0,17.25,,,,,,,,,,,,,,,,,,,,,,,,,
0.0,-1.9969929249780874e-21,2.256934881210327,-1.1112481355667114,-2.4983146613347646e-21,-1.1070245504379272,-0.7991143465042114,1.5162572018298619e-21,-0.8089298009872437,-0.3528778553009033,0.0,1.8979310989379883,-1.0803937911987305,-0.3835020959377289,20.75,0.0,2.076387405395508,-1.1587142944335938,-1.1505062878131866,20.25,0.0,2.211928367614746,-1.272439956665039,-1.1505062878131866,18.75,0.0,2.3031234741210938,-1.4251470565795898,-0.7670041918754578,15.5,0.0,2.4265050888061523,-1.5327930450439453,-0.9587552398443222,14.25,0.0,3.148198127746582,-2.056002616882324,0.0,13.0,0.0,3.0677318572998047,-1.9265413284301758,0.0,15.25,,,,,,,,,,,,,,,,,,,,,,,,,,,,,,,,,,,,,,,,,,,,,,,,,,
0.0,-1.9325602808525732e-21,2.118164300918579,-1.262103796005249,-1.91549422811209e-21,-1.2181943655014038,-0.971427857875824,1.8027213994049827e-21,-0.8212029337882996,-0.48446401953697205,0.0,1.8467903137207031,-1.4319419860839844,0.19175104796886444,22.0,0.0,1.8993616104125977,-1.5363693237304688,-0.19175104796886444,15.75,0.0,1.8668174743652344,-1.330733299255371,0.19175104796886444,20.75,0.0,1.6608238220214844,-1.4383792877197266,0.0,25.75,0.0,3.0455589294433594,-1.9605159759521484,0.0,15.0,0.0,3.141045570373535,-2.061009407043457,0.0,12.25,0.0,2.3027658462524414,-1.0524988174438477,0.0,18.0,0.0,2.758026123046875,-1.1161565780639648,0.0,12.75,0.0,2.9196739196777344,-1.0743141174316406,0.0,17.0,,,,,,,,,,,,,,,,,,,,,,,,,,,,,,,,,,,,,,,,
0.0,-2.360541934395215e-23,2.817450523376465,-0.5089293122291565,2.3307463424606553e-23,-0.29355648159980774,-0.35318195819854736,8.157823297790531e-23,-0.19286185503005981,-0.0240042544901371,0.0,2.9404163360595703,-1.341104507446289,-0.19175104796886444,15.0,0.0,2.8917789459228516,-1.2352466583251953,-0.19175104796886444,18.5,0.0,3.0999183654785156,-1.3031959533691406,-0.19175104796886444,12.5,0.0,2.799510955810547,-0.7835626602172852,-0.3835020959377289,13.5,0.0,2.637505531311035,-0.1920461654663086,-0.3835020959377289,19.5,0.0,2.552032470703125,0.19025802612304688,-0.3835020959377289,22.5,0.0,2.4944543838500977,0.3014802932739258,-0.3835020959377289,20.0,0.0,2.771615982055664,0.02396106719970703,0.0,25.75,,,,,,,,,,,,,,,,,,,,,,,,,,,,,,,,,,,,,,,,,,,,,
0.0,-1.5336569869094642e-23,2.7770895957946777,-0.5818824172019958,3.8866009286099525e-23,-0.36202412843704224,-0.4128732979297638,8.627055434700265e-23,-0.26779869198799133,-0.06525245308876038,0.0,2.8002262115478516,-1.4508962631225586,-0.19175104796886444,18.0,0.0,2.9844045639038086,-1.3782978057861328,-0.19175104796886444,19.75,0.0,3.0788183212280273,-1.3425350189208984,-0.19175104796886444,17.25,0.0,2.7887821197509766,-0.7138252258300781,-0.5752531439065933,18.5,0.0,2.6711225509643555,-0.4992485046386719,-0.5752531439065933,20.75,0.0,2.566695213317871,-0.14984607696533203,-0.7670041918754578,21.0,0.0,2.468705177307129,0.20635128021240234,-0.7670041918754578,19.75,0.0,3.0798912048339844,-1.3064146041870117,0.0,16.5,0.0,3.0448436737060547,-1.0660886764526367,0.0,21.75,0.0,2.913236618041992,-0.3769397735595703,0.0,23.75,,,,,,,,,,,,,,,,,,,,,,,,,,,,,,,,,,,
0.0,-7.931736077898551e-24,2.7340736389160156,-0.5865361094474792,5.1590304132878236e-23,-0.4238623082637787,-0.3467743694782257,8.886902430347722e-23,-0.32945749163627625,0.00546611100435257,0.0,2.7315616607666016,-1.2767314910888672,-0.19175104796886444,19.75,0.0,2.9060840606689453,-1.2652873992919922,-0.19175104796886444,23.0,0.0,2.968311309814453,-1.2466907501220703,-0.5752531439065933,21.75,0.0,3.035902976989746,-1.3275146484375,-0.3835020959377289,16.25,0.0,2.4243593215942383,0.07474422454833984,-0.9587552398443222,16.75,0.0,2.5066137313842773,-0.0032186508178710938,-0.5752531439065933,27.75,0.0,2.5277137756347656,-0.055789947509765625,-0.5752531439065933,30.25,0.0,2.5767087936401367,-0.07975101470947266,-0.7670041918754578,24.75,0.0,3.0602216720581055,-1.0077953338623047,0.0,19.5,0.0,3.162503242492676,-1.0886192321777344,0.0,15.0,0.0,2.7011632919311523,-0.2689361572265625,0.0,24.75,0.0,2.5634765625,-0.06115436553955078,0.0,26.5,,,,,,,,,,,,,,,,,,,,,,,,,
0.0,-1.796386164760236e-24,2.672363758087158,-0.6572783589363098,6.121613004879158e-23,-0.5216725468635559,-0.3993243873119354,8.934807744311259e-23,-0.42438560724258423,-0.030159108340740204,0.0,3.0498504638671875,-1.9283294677734375,-0.7670041918754578,13.0,0.0,2.8409957885742188,-1.225590705871582,-0.5752531439065933,15.25,0.0,3.002643585205078,-1.2763738632202148,-0.3835020959377289,13.25,0.0,3.153204917907715,-1.4101266860961914,-0.3835020959377289,14.25,0.0,2.7780532836914062,-0.858306884765625,-0.5752531439065933,15.25,0.0,2.4254322052001953,-0.5578994750976562,-0.5752531439065933,27.0,0.0,2.5284290313720703,-0.6823539733886719,-0.5752531439065933,19.25,0.0,2.4003982543945312,-0.3597736358642578,-0.5752531439065933,26.75,0.0,2.3217201232910156,-0.027179718017578125,-0.9587552398443222,22.0,0.0,3.068089485168457,-0.9788274765014648,0.0,19.0,0.0,3.1528472900390625,-1.1383295059204102,0.0,14.5,0.0,2.896428108215332,-0.39839744567871094,0.0,22.5,0.0,2.704024314880371,-0.21386146545410156,0.0,23.75,,,,,,,,,,,,,,,,,,,,
0.0,3.508896299342395e-24,2.6379799842834473,-0.6865983009338379,6.846050479870029e-23,-0.5305583477020264,-0.3846321403980255,8.825842703017443e-23,-0.39089080691337585,-0.016348805278539658,0.0,2.9178857803344727,-1.7108917236328125,-0.3835020959377289,14.0,0.0,2.938985824584961,-1.3890266418457031,-0.3835020959377289,16.5,0.0,2.9296875,-0.9441375732421875,-0.19175104796886444,17.25,0.0,2.5069713592529297,-0.5089044570922852,-0.5752531439065933,24.25,0.0,2.6775598526000977,-0.43845176696777344,-0.19175104796886444,21.75,0.0,2.8531551361083984,-0.5071163177490234,-0.19175104796886444,19.5,0.0,2.428293228149414,-0.3826618194580078,-0.5752531439065933,22.75,0.0,2.3256540298461914,-0.19347667694091797,-0.5752531439065933,16.75,0.0,3.0759572982788086,-1.3564825057983398,0.0,15.0,0.0,3.0412673950195312,-1.0567903518676758,0.0,19.25,0.0,2.691507339477539,-0.27108192443847656,0.0,24.75,,,,,,,,,,,,,,,,,,,,,,,,,,,,,,
0.0,7.78719388309581e-24,2.592507839202881,-0.7089008688926697,7.311046118174365e-23,-0.5780639052391052,-0.34899666905403137,8.550321356727607e-23,-0.42424193024635315,0.0247967429459095,0.0,2.770543098449707,-1.3865232467651367,-0.5752531439065933,13.75,0.0,2.9740333557128906,-1.4104843139648438,-0.5752531439065933,17.25,0.0,3.086686134338379,-1.3396739959716797,-0.5752531439065933,14.5,0.0,2.5838613510131836,-0.6022453308105469,-0.5752531439065933,20.5,0.0,2.3227930068969727,-0.45239925384521484,-0.7670041918754578,18.5,0.0,2.7347803115844727,-0.4616975784301758,-0.5752531439065933,24.75,0.0,2.19118595123291,-0.3132820129394531,-0.7670041918754578,21.5,0.0,2.771615982055664,-0.4420280456542969,-0.5752531439065933,19.75,,,,,,,,,,,,,,,,,,,,,,,,,,,,,,,,,,,,,,,,,,,,,
0.0,1.1631611263659974e-23,2.5031447410583496,-0.8219584226608276,7.619556996431819e-23,-0.6918080449104309,-0.4820637106895447,8.18683760188456e-23,-0.5101137161254883,-0.08916503190994263,0.0,2.7576684951782227,-1.7033815383911133,-0.3835020959377289,13.75,0.0,2.461552619934082,-1.2373924255371094,-1.342257335782051,14.25,0.0,2.6035308837890625,-1.3393163681030273,-0.5752531439065933,14.5,0.0,2.719402313232422,-1.451253890991211,-0.5752531439065933,14.5,0.0,2.3245811462402344,-0.9337663650512695,-0.5752531439065933,17.25,0.0,2.2165775299072266,-0.7281303405761719,-0.5752531439065933,21.75,0.0,2.1500587463378906,-0.5114078521728516,-0.5752531439065933,22.0,,,,,,,,,,,,,,,,,,,,,,,,,,,,,,,,,,,,,,,,,,,,,,,,,,
0.0,1.4457935015137668e-23,2.390960454940796,-0.9730507731437683,7.695478863216462e-23,-0.8572679758071899,-0.6593468189239502,7.686019474329775e-23,-0.6611407995223999,-0.2207237184047699,0.0,2.2280216217041016,-1.3121366500854492,-1.5340083837509155,19.75,0.0,2.3488998413085938,-1.381516456604004,-1.5340083837509155,16.75,0.0,2.4840831756591797,-1.4530420303344727,-0.5752531439065933,15.25,0.0,2.6847124099731445,-1.5166997909545898,-0.5752531439065933,14.0,0.0,2.8542280197143555,-1.5524625778198242,-1.72575943171978,14.25,0.0,2.1196603775024414,-1.1154413223266602,0.3835020959377289,19.75,0.0,2.022385597229004,-0.8168220520019531,-0.7670041918754578,20.0,0.0,2.0384788513183594,-0.9913444519042969,0.0,22.25,,,,,,,,,,,,,,,,,,,,,,,,,,,,,,,,,,,,,,,,,,,,,
0.0,1.717226812820566e-23,2.265557289123535,-1.0647250413894653,7.698709406395523e-23,-0.9924476742744446,-0.7208075523376465,7.170828301081864e-23,-0.7367944717407227,-0.2490728199481964,0.0,2.2219419479370117,-1.4798641204833984,-0.5752531439065933,13.25,0.0,2.398252487182617,-1.6129016876220703,-0.9587552398443222,13.0,0.0,2.0488500595092773,-1.1783838272094727,-0.7670041918754578,20.25,0.0,2.140045166015625,-1.3318061828613281,-0.7670041918754578,19.5,0.0,1.9043684005737305,-0.7503032684326172,-0.5752531439065933,16.25,0.0,1.990199089050293,-0.7342100143432617,-0.5752531439065933,23.0,,,,,,,,,,,,,,,,,,,,,,,,,,,,,,,,,,,,,,,,,,,,,,,,,,,,,,,
0.0,1.9889608379044357e-23,2.131134033203125,-1.2211192846298218,7.650492965690966e-23,-1.1488999128341675,-0.8815320730209351,6.652168033117154e-23,-0.8395695090293884,-0.3549731373786926,0.0,1.7355680465698242,-1.5503168106079102,-0.3835020959377289,12.25,0.0,2.2487640380859375,-1.701951026916504,-0.7670041918754578,15.75,0.0,2.054572105407715,-1.3890266418457031,-0.3835020959377289,18.75,0.0,2.1436214447021484,-1.4530420303344727,-1.1505062878131866,19.75,0.0,2.176523208618164,-1.6143321990966797,-1.1505062878131866,18.25,,,,,,,,,,,,,,,,,,,,,,,,,,,,,,,,,,,,,,,,,,,,,,,,,,,,,,,,,,,,
0.0,2.1024525208445912e-23,2.012171506881714,-1.29438054561615,7.356897869429431e-23,-1.2077072858810425,-0.9068946838378906,6.013309975657003e-23,-0.7914085984230042,-0.365189790725708,0.0,2.1446943283081055,-1.5134811401367188,-1.1505062878131866,12.75,0.0,1.6393661499023438,-0.983119010925293,0.3835020959377289,14.5,0.0,1.7112493515014648,-1.0242462158203125,0.3835020959377289,17.25,0.0,1.8582344055175781,-1.0932683944702148,-0.19175104796886444,21.5,0.0,2.0656585693359375,-1.1519193649291992,-0.19175104796886444,20.25,0.0,2.118229866027832,-1.329660415649414,-1.1505062878131866,17.25,,,,,,,,,,,,,,,,,,,,,,,,,,,,,,,,,,,,,,,,,,,,,,,,,,,,,,,
0.0,-1.0830299963987085e-24,2.8813605308532715,0.09956030547618866,4.6180075163819075e-25,-0.3792226314544678,0.15298578143119812,1.8926384364650987e-24,-0.3622247874736786,-0.2993924617767334,0.0,3.141045570373535,-1.6522407531738281,-0.19175104796886444,12.5,0.0,3.142833709716797,-1.3142824172973633,-0.19175104796886444,16.5,0.0,3.1374692916870117,-1.0535717010498047,-0.19175104796886444,18.5,0.0,2.991199493408203,-0.4878044128417969,-0.19175104796886444,17.25,0.0,2.7326345443725586,0.0833272933959961,-0.19175104796886444,24.5,0.0,2.7555227279663086,0.0768899917602539,-0.19175104796886444,29.25,0.0,2.793431282043457,0.0457763671875,-0.19175104796886444,25.5,0.0,3.2529830932617188,-1.4798641204833984,0.0,16.5,0.0,3.315567970275879,-1.7620325088500977,0.0,12.75,,,,,,,,,,,,,,,,,,,,,,,,,,,,,,,,,,,,,,,,
