tid,posx,posy,posz,velx,vely,velz,accx,accy,accz,pointx1,pointy1,pointz1,doppler1,snr1,pointx2,pointy2,pointz2,doppler2,snr2,pointx3,pointy3,pointz3,doppler3,snr3,pointx4,pointy4,pointz4,doppler4,snr4,pointx5,pointy5,pointz5,doppler5,snr5,pointx6,pointy6,pointz6,doppler6,snr6,pointx7,pointy7,pointz7,doppler7,snr7,pointx8,pointy8,pointz8,doppler8,snr8,pointx9,pointy9,pointz9,doppler9,snr9,pointx10,pointy10,pointz10,doppler10,snr10,pointx11,pointy11,pointz11,doppler11,snr11,pointx12,pointy12,pointz12,doppler12,snr12,pointx13,pointy13,pointz13,doppler13,snr13,pointx14,pointy14,pointz14,doppler14,snr14,pointx15,pointy15,pointz15,doppler15,snr15
0.0,0.0019776246044784784,3.1072118282318115,-0.5687881708145142,0.018406063318252563,-0.1930120587348938,-0.24202264845371246,0.02942107804119587,-0.39272430539131165,-0.06001725792884827,0.0,3.0394792556762695,-1.9376277923583984,-0.3835020959377289,14.5,0.0,3.423929214477539,-1.6264915466308594,-0.3835020959377289,12.25,0.0,3.236532211303711,-1.0181665420532227,-0.3835020959377289,18.75,0.0,3.1549930572509766,-0.7356405258178711,-0.3835020959377289,22.25,0.0,3.0663013458251953,-0.32007694244384766,-0.3835020959377289,24.0,0.0,2.9876232147216797,-0.13589859008789062,-0.3835020959377289,23.75,0.0,2.914309501647949,-0.015735626220703125,-0.3835020959377289,18.25,0.0,3.330230712890625,-1.0689496994018555,0.0,28.0,0.0,3.251194953918457,-0.6880760192871094,0.0,24.75,0.0,3.0323266983032227,0.01609325408935547,0.0,24.0,0.0,3.1006336212158203,-0.028967857360839844,0.0,25.75,0.0,2.9447078704833984,0.10764598846435547,0.0,15.5,,,,,,,,,,,,,,,
0.0,0.0024870396591722965,3.055943727493286,-0.5995135307312012,0.01861000247299671,-0.3402039110660553,-0.24509723484516144,0.027384737506508827,-0.5642895698547363,-0.0410681888461113,0.0,3.0645132064819336,-1.8142461776733398,-0.5752531439065933,17.5,0.0,3.129243850708008,-1.360774040222168,-0.5752531439065933,20.25,0.0,3.130316734313965,-0.9988546371459961,-0.5752531439065933,23.5,0.0,3.0698776245117188,-0.6172657012939453,-0.5752531439065933,22.0,0.0,2.8688907623291016,-0.1283884048461914,-0.7670041918754578,18.25,0.0,2.9511451721191406,-0.21708011627197266,-0.7670041918754578,21.25,0.0,3.3320188522338867,-1.0628700256347656,0.0,27.75,0.0,3.2444000244140625,-0.7206201553344727,0.0,25.0,0.0,2.9304027557373047,-0.025033950805664062,0.0,17.0,0.0,3.018021583557129,-0.0057220458984375,0.0,24.25,0.0,3.097057342529297,-0.060439109802246094,0.0,25.5,,,,,,,,,,,,,,,,,,,,
0.0,0.00278279697522521,3.0066604614257812,-0.5622385740280151,0.018314477056264877,-0.4430912137031555,-0.12680956721305847,0.025226494297385216,-0.6475921869277954,0.07127093523740768,0.0,2.9500722885131836,-0.9834766387939453,-0.19175104796886444,16.25,0.0,3.125309944152832,-0.9881258010864258,-0.5752531439065933,17.75,0.0,3.257274627685547,-1.0052919387817383,-0.3835020959377289,12.75,0.0,2.7544498443603516,-0.05650520324707031,-0.7670041918754578,12.5,0.0,2.8238296508789062,-0.0514984130859375,-0.7670041918754578,20.75,0.0,2.853512763977051,-0.04363059997558594,-0.7670041918754578,20.25,0.0,3.333449363708496,-1.0578632354736328,0.0,27.0,0.0,3.232598304748535,-0.8726119995117188,0.0,25.0,0.0,2.8917789459228516,0.001430511474609375,0.0,20.0,0.0,2.9851198196411133,0.007152557373046875,0.0,24.5,0.0,3.0841827392578125,-0.044345855712890625,0.0,25.0,,,,,,,,,,,,,,,,,,,,
0.0,0.002828027820214629,2.9581921100616455,-0.6815792918205261,0.017766978591680527,-0.5420066118240356,-0.3061363697052002,0.023179451003670692,-0.6965574622154236,-0.07795881479978561,0.0,3.3098459243774414,-2.296328544616699,-1.1505062878131866,12.25,0.0,3.3130645751953125,-1.855015754699707,-0.9587552398443222,15.5,0.0,2.9540061950683594,-1.1780261993408203,-0.5752531439065933,26.25,0.0,2.9783248901367188,-1.2745857238769531,-0.19175104796886444,25.75,0.0,3.1435489654541016,-1.2019872665405273,-0.19175104796886444,19.5,0.0,3.2701492309570312,-1.4777183532714844,-0.7670041918754578,15.25,0.0,2.913951873779297,-0.3522634506225586,-0.7670041918754578,20.25,0.0,2.7687549591064453,-0.10192394256591797,-0.3835020959377289,23.0,0.0,2.7333498001098633,-0.06008148193359375,-0.3835020959377289,17.5,0.0,2.9522180557250977,0.03933906555175781,0.0,23.5,,,,,,,,,,,,,,,,,,,,,,,,,
0.0,0.0032742207404226065,2.879298686981201,-0.7416754364967346,0.017585720866918564,-0.707409143447876,-0.3444913327693939,0.02149895764887333,-0.8532637357711792,-0.0806225910782814,0.0,2.9060840606689453,-1.1154413223266602,-0.9587552398443222,22.0,0.0,3.151416778564453,-1.2449026107788086,-1.1505062878131866,13.25,0.0,3.0455589294433594,-1.0074377059936523,-1.1505062878131866,18.75,0.0,2.876400947570801,-0.8268356323242188,-0.9587552398443222,18.25,0.0,2.8156042098999023,-0.4380941390991211,-0.5752531439065933,16.0,0.0,2.9518604278564453,0.05328655242919922,0.0,23.75,,,,,,,,,,,,,,,,,,,,,,,,,,,,,,,,,,,,,,,,,,,,,
0.0,0.0032041107770055532,2.768662214279175,-0.9084564447402954,0.016635674983263016,-0.9118748307228088,-0.5636371374130249,0.01951141469180584,-1.0207138061523438,-0.23247289657592773,0.0,2.945423126220703,-1.6018152236938477,0.19175104796886444,16.25,0.0,3.0755996704101562,-1.804947853088379,-1.72575943171978,12.5,0.0,2.575993537902832,-1.0489225387573242,-0.7670041918754578,24.0,0.0,2.754807472229004,-1.097559928894043,-1.342257335782051,25.25,0.0,2.869248390197754,-1.1758804321289062,-1.342257335782051,27.0,0.0,2.9071569442749023,-1.3142824172973633,-1.342257335782051,21.5,0.0,2.521634101867676,-0.9015798568725586,-0.7670041918754578,21.75,0.0,3.1224489212036133,-1.335740089416504,0.0,19.0,,,,,,,,,,,,,,,,,,,,,,,,,,,,,,,,,,,
0.0,0.003339757677167654,2.6410858631134033,-0.9794639348983765,0.01598157361149788,-1.1058951616287231,-0.5854729413986206,0.01787201501429081,-1.1594674587249756,-0.2043481469154358,0.0,2.730846405029297,-1.2481212615966797,-1.5340083837509155,18.5,0.0,2.877473831176758,-1.3704299926757812,-1.5340083837509155,14.0,0.0,2.4701356887817383,-0.9380578994750977,-1.1505062878131866,24.75,0.0,2.533435821533203,-1.0936260223388672,-0.5752531439065933,26.25,0.0,2.6210546493530273,-1.1769533157348633,-1.5340083837509155,25.25,0.0,2.392888069152832,-0.834345817565918,-1.1505062878131866,19.0,0.0,1.6722679138183594,-1.4154911041259766,0.0,20.0,0.0,3.1017065048217773,-1.3507604598999023,0.0,19.5,,,,,,,,,,,,,,,,,,,,,,,,,,,,,,,,,,,
0.0,0.003492095973342657,2.4687793254852295,-1.036067008972168,0.015299515798687935,-1.358961820602417,-0.5666524171829224,0.016336539760231972,-1.3559160232543945,-0.13286256790161133,0.0,1.9834041595458984,-1.1733770370483398,-1.9175104796886444,22.0,0.0,2.204418182373047,-1.016378402709961,-1.9175104796886444,25.75,0.0,2.2895336151123047,-1.051783561706543,-1.9175104796886444,26.0,0.0,2.38037109375,-1.1601448059082031,-0.9587552398443222,21.0,0.0,2.569913864135742,-1.2173652648925781,-0.9587552398443222,13.25,0.0,1.855015754699707,-1.2631416320800781,0.0,22.25,0.0,2.9947757720947266,-1.222372055053711,0.0,22.5,0.0,3.0906200408935547,-1.3300180435180664,0.0,18.0,,,,,,,,,,,,,,,,,,,,,,,,,,,,,,,,,,,
0.0,0.0035169692710042,2.3079824447631836,-1.070719599723816,0.01457168348133564,-1.547286868095398,-0.5213455557823181,0.014932931400835514,-1.4381718635559082,-0.06274709850549698,0.0,2.468705177307129,-1.3965368270874023,-0.3835020959377289,13.0,0.0,2.24912166595459,-1.154780387878418,-1.9175104796886444,19.5,0.0,2.387881278991699,-1.2488365173339844,-1.9175104796886444,18.5,0.0,2.1028518676757812,-0.8389949798583984,-2.109261527657509,21.5,0.0,2.159714698791504,-0.9369850158691406,-0.7670041918754578,21.5,0.0,1.7938613891601562,-1.2778043746948242,0.0,25.0,0.0,3.0670166015625,-1.8467903137207031,0.0,12.5,0.0,3.275156021118164,-1.9279718399047852,0.0,12.25,,,,,,,,,,,,,,,,,,,,,,,,,,,,,,,,,,,
0.0,0.004006468690931797,2.1656789779663086,-1.185670018196106,0.014764741994440556,-1.6091707944869995,-0.6802350878715515,0.014235567301511765,-1.2962168455123901,-0.23807591199874878,0.0,2.2051334381103516,-1.3039112091064453,-0.19175104796886444,21.0,0.0,2.2745132446289062,-1.382589340209961,-0.19175104796886444,16.5,0.0,1.9966363906860352,-0.9187459945678711,-0.5752531439065933,20.25,0.0,2.1042823791503906,-1.1243820190429688,-0.3835020959377289,19.5,0.0,1.8013715744018555,-1.2760162353515625,0.0,24.5,0.0,3.0469894409179688,-1.8807649612426758,0.0,12.5,0.0,3.0902624130249023,-1.295328140258789,0.0,17.25,,,,,,,,,,,,,,,,,,,,,,,,,,,,,,,,,,,,,,,,
0.0,6.196621689014137e-05,3.0002281665802,-0.6319905519485474,0.00013706300524063408,-0.40500274300575256,-0.031860142946243286,5.653736661770381e-05,-0.42879801988601685,0.21827015280723572,0.0,3.1256675720214844,-1.4147758483886719,-0.5752531439065933,15.0,0.0,3.240823745727539,-1.5621185302734375,-0.19175104796886444,13.5,0.0,3.1213760375976562,-1.4129877090454102,-0.5752531439065933,14.75,0.0,3.051638603210449,-1.0979175567626953,-0.5752531439065933,17.75,0.0,3.002285957336426,-0.7181167602539062,-0.7670041918754578,20.75,0.0,2.869248390197754,-0.13339519500732422,-0.7670041918754578,21.5,0.0,2.7033090591430664,0.009298324584960938,-0.5752531439065933,20.75,0.0,2.7523040771484375,-0.032901763916015625,-0.5752531439065933,24.0,0.0,2.817392349243164,0.01609325408935547,0.0,24.25,,,,,,,,,,,,,,,,,,,,,,,,,,,,,,
0.0,5.888322266400792e-05,2.919135808944702,-0.7064765095710754,0.00012128530943300575,-0.5478878021240234,-0.12732194364070892,4.344762783148326e-05,-0.5621826648712158,0.12872058153152466,0.0,2.85494327545166,-1.312851905822754,-0.7670041918754578,22.0,0.0,2.739071846008301,-1.198410987854004,-0.9587552398443222,17.5,0.0,2.9518604278564453,-1.3082027435302734,-0.7670041918754578,19.0,0.0,3.117084503173828,-1.3293027877807617,-0.5752531439065933,13.5,0.0,2.652883529663086,-0.24712085723876953,-0.5752531439065933,18.25,0.0,2.7115345001220703,-0.2503395080566406,-0.7670041918754578,19.75,0.0,3.440380096435547,-1.4355182647705078,0.0,12.25,0.0,2.8020143508911133,-0.04363059997558594,0.0,23.75,0.0,2.8553009033203125,-0.03612041473388672,0.0,23.0,,,,,,,,,,,,,,,,,,,,,,,,,,,,,,
0.0,5.686834629159421e-05,2.835474967956543,-0.7608985304832458,0.00010758594726212323,-0.6679031848907471,-0.18174386024475098,3.241614467697218e-05,-0.6463947296142578,0.07918914407491684,0.0,2.871394157409668,-1.1562108993530273,-1.342257335782051,16.75,0.0,2.9801130294799805,-1.3049840927124023,-0.5752531439065933,13.75,0.0,2.7877092361450195,-0.8783340454101562,-0.7670041918754578,17.5,0.0,2.6618242263793945,-0.7048845291137695,-0.5752531439065933,17.25,0.0,2.5702714920043945,-0.5578994750976562,-0.5752531439065933,16.25,0.0,3.4189224243164062,-1.488804817199707,0.0,12.25,0.0,2.708315849304199,-0.10800361633300781,0.0,18.0,0.0,2.7970075607299805,-0.050067901611328125,0.0,23.25,0.0,2.8617382049560547,-0.06008148193359375,0.0,23.0,,,,,,,,,,,,,,,,,,,,,,,,,,,,,,
0.0,4.702176374848932e-05,2.697200298309326,-0.9154238700866699,8.4677740233019e-05,-0.8635997176170349,-0.4057760238647461,1.6407791918027215e-05,-0.7922353744506836,-0.10987382382154465,0.0,1.8693208694458008,-1.2516975402832031,-0.19175104796886444,19.0,0.0,2.7791261672973633,-1.3132095336914062,-1.72575943171978,14.0,0.0,2.9668807983398438,-1.4058351516723633,-0.19175104796886444,14.25,0.0,2.51162052154541,-0.9659528732299805,-0.5752531439065933,21.0,0.0,2.6178359985351562,-1.1515617370605469,-1.72575943171978,16.25,0.0,3.136754035949707,-1.3450384140014648,-0.19175104796886444,13.5,0.0,2.3277997970581055,-0.8139610290527344,-0.9587552398443222,22.0,0.0,2.421140670776367,-0.8440017700195312,-0.9587552398443222,24.0,0.0,1.6654729843139648,-1.4051198959350586,0.0,22.25,0.0,2.765536308288574,-0.11658668518066406,0.0,22.5,,,,,,,,,,,,,,,,,,,,,,,,,
0.0,4.405293657328002e-05,2.559797763824463,-1.0202239751815796,7.174488564487547e-05,-1.0138893127441406,-0.5297292470932007,7.452267709595617e-06,-0.8592231869697571,-0.20573799312114716,0.0,1.9218921661376953,-1.1444091796875,-0.19175104796886444,18.75,0.0,2.2945404052734375,-1.1487007141113281,-0.19175104796886444,21.0,0.0,2.4243593215942383,-1.181960105895996,-0.19175104796886444,18.75,0.0,2.5380849838256836,-1.267075538635254,-2.109261527657509,13.25,0.0,2.240896224975586,-0.8972883224487305,-1.72575943171978,20.0,0.0,1.668691635131836,-1.3761520385742188,0.0,23.0,0.0,2.458333969116211,-0.8429288864135742,0.0,22.0,0.0,2.7369260787963867,-0.22673606872558594,0.0,22.25,0.0,2.8492212295532227,-0.2607107162475586,0.0,18.25,,,,,,,,,,,,,,,,,,,,,,,,,,,,,,
0.0,4.0042556065600365e-05,2.427910804748535,-1.1666239500045776,5.8417688705958426e-05,-1.103776454925537,-0.7399675846099854,-1.0437152013764717e-06,-0.8166983127593994,-0.39585334062576294,0.0,2.06601619720459,-1.2384653091430664,-0.19175104796886444,23.0,0.0,2.22015380859375,-1.2792348861694336,-0.19175104796886444,24.25,0.0,2.3299455642700195,-1.2878179550170898,-0.19175104796886444,21.5,0.0,2.429366111755371,-1.3439655303955078,-0.19175104796886444,13.0,0.0,2.0009279251098633,-1.0335445404052734,-0.19175104796886444,21.75,0.0,1.774907112121582,-1.2720823287963867,0.0,22.25,0.0,3.2007694244384766,-1.2127161026000977,0.0,14.5,0.0,2.692580223083496,-0.4076957702636719,0.0,22.0,0.0,2.828836441040039,-0.37801265716552734,0.0,15.75,,,,,,,,,,,,,,,,,,,,,,,,,,,,,,
0.0,3.517360528348945e-05,2.2826435565948486,-1.2271013259887695,4.468175393412821e-05,-1.2228789329528809,-0.756214439868927,-9.47165972320363e-06,-0.8493887782096863,-0.37645310163497925,0.0,2.235889434814453,-1.4823675155639648,-0.3835020959377289,14.25,0.0,2.0399093627929688,-1.1587142944335938,-1.1505062878131866,17.0,0.0,2.2194385528564453,-1.2989044189453125,-0.3835020959377289,17.75,0.0,1.8357038497924805,-0.8518695831298828,-0.7670041918754578,17.25,0.0,1.8839836120605469,-0.9377002716064453,-0.7670041918754578,21.25,0.0,1.774907112121582,-1.2123584747314453,0.0,23.75,0.0,3.037691116333008,-1.2592077255249023,0.0,14.75,0.0,2.6689767837524414,-0.5178451538085938,0.0,18.75,,,,,,,,,,,,,,,,,,,,,,,,,,,,,,,,,,,
0.0,3.150206612190232e-05,2.1470861434936523,-1.3228564262390137,3.351664054207504e-05,-1.2835767269134521,-0.8579908609390259,-1.5677826013416052e-05,-0.7867549657821655,-0.46265941858291626,0.0,1.921534538269043,-1.2574195861816406,-0.19175104796886444,19.25,0.0,1.8153190612792969,-1.0228157043457031,0.19175104796886444,15.75,0.0,1.8714666366577148,-1.0914802551269531,0.19175104796886444,22.75,0.0,2.100706100463867,-1.3142824172973633,-0.7670041918754578,14.25,0.0,1.8267631530761719,-1.180887222290039,0.0,25.5,0.0,2.935051918029785,-1.4791488647460938,0.0,13.5,0.0,3.143906593322754,-1.4015436172485352,0.0,13.25,,,,,,,,,,,,,,,,,,,,,,,,,,,,,,,,,,,,,,,,
0.0,2.5749548512976617e-05,2.0379955768585205,-1.3867331743240356,2.0566367311403155e-05,-1.294052004814148,-0.8862733840942383,-2.2606964193983003e-05,-0.6936929821968079,-0.47201985120773315,0.0,1.7219781875610352,-1.3604164123535156,0.19175104796886444,20.0,0.0,1.685500144958496,-1.2001991271972656,0.19175104796886444,15.75,0.0,2.1167993545532227,-1.1576414108276367,-0.5752531439065933,21.75,0.0,2.223372459411621,-1.159071922302246,-0.5752531439065933,21.75,0.0,2.3016929626464844,-1.224517822265625,-0.5752531439065933,13.5,,,,,,,,,,,,,,,,,,,,,,,,,,,,,,,,,,,,,,,,,,,,,,,,,,
0.0,2.0524594219750725e-05,1.973244547843933,-1.4468069076538086,9.33258343138732e-06,-1.1985958814620972,-0.9274865984916687,-2.7983938707620837e-05,-0.4855749011039734,-0.5181238651275635,0.0,1.706242561340332,-1.2652873992919922,-0.19175104796886444,13.5,0.0,1.8979310989379883,-1.2481212615966797,0.19175104796886444,21.0,0.0,2.2301673889160156,-1.3142824172973633,0.19175104796886444,12.5,0.0,2.119302749633789,-1.1322498321533203,0.19175104796886444,24.25,0.0,2.177596092224121,-1.1554956436157227,0.19175104796886444,22.5,,,,,,,,,,,,,,,,,,,,,,,,,,,,,,,,,,,,,,,,,,,,,,,,,,
0.0,5.671340375101863e-08,2.8973124027252197,-0.6087016463279724,2.0239878040229087e-07,-0.5915451049804688,-0.37236636877059937,1.43189240020547e-07,-0.39347654581069946,-0.34481433033943176,0.0,3.0591487884521484,-0.9452104568481445,-0.5752531439065933,15.0,0.0,2.914309501647949,-0.8254051208496094,-0.5752531439065933,18.75,0.0,2.8020143508911133,-0.4820823669433594,-0.19175104796886444,22.5,0.0,2.7261972427368164,-0.20563602447509766,-0.3835020959377289,21.25,0.0,2.7490854263305664,-0.23996829986572266,-0.19175104796886444,26.0,0.0,3.197193145751953,-1.292109489440918,0.0,20.5,0.0,3.1571388244628906,-0.7899999618530273,0.0,24.0,0.0,2.9439926147460938,-0.20205974578857422,0.0,28.5,0.0,3.0434131622314453,-0.22208690643310547,0.0,27.0,0.0,2.8585195541381836,-0.02753734588623047,0.0,25.0,,,,,,,,,,,,,,,,,,,,,,,,,
0.0,5.736166741598936e-08,2.844695806503296,-0.6407268643379211,1.9134829187805735e-07,-0.6199718117713928,-0.39387425780296326,1.2734562915284187e-07,-0.385669082403183,-0.3334023058414459,0.0,3.0019283294677734,-1.5946626663208008,-0.3835020959377289,13.25,0.0,3.0291080474853516,-1.1047124862670898,-0.3835020959377289,15.5,0.0,2.9854774475097656,-0.6816387176513672,-0.5752531439065933,20.25,0.0,2.8095245361328125,-0.6083250045776367,-0.5752531439065933,22.5,0.0,2.7315616607666016,-0.2925395965576172,-0.5752531439065933,25.5,0.0,2.6911497116088867,-0.22172927856445312,-0.5752531439065933,22.0,0.0,3.280162811279297,-1.3990402221679688,0.0,17.5,0.0,3.3981800079345703,-1.5145540237426758,0.0,12.25,0.0,3.086686134338379,-1.1061429977416992,0.0,22.0,0.0,3.040909767150879,-0.32722949981689453,0.0,25.25,0.0,2.9289722442626953,-0.23031234741210938,0.0,27.75,0.0,2.8438568115234375,-0.03218650817871094,0.0,25.0,,,,,,,,,,,,,,,
0.0,5.648858092399678e-08,2.754852533340454,-0.6805575489997864,1.7747782976584858e-07,-0.7328627109527588,-0.4124360680580139,1.1037698044447097e-07,-0.4941200613975525,-0.3079916834831238,0.0,2.8982162475585938,-1.4115571975708008,-0.7670041918754578,14.25,0.0,2.822399139404297,-1.21307373046875,-0.7670041918754578,18.5,0.0,2.702951431274414,-0.9931325912475586,-0.3835020959377289,20.0,0.0,2.549886703491211,-0.3579854965209961,-1.1505062878131866,16.75,0.0,2.61533260345459,-0.33295154571533203,-0.9587552398443222,24.25,0.0,2.6646852493286133,-0.354766845703125,-0.9587552398443222,23.75,0.0,3.069162368774414,-1.0628700256347656,0.0,20.0,0.0,2.644658088684082,-0.3426074981689453,0.0,25.25,0.0,3.0323266983032227,-0.46706199645996094,0.0,23.75,0.0,2.7666091918945312,-0.20813941955566406,0.0,26.75,0.0,2.90071964263916,-0.2728700637817383,0.0,26.5,,,,,,,,,,,,,,,,,,,,
0.0,5.1612587981253455e-08,2.6439695358276367,-0.7286245226860046,1.578091683995808e-07,-0.9197317361831665,-0.41882088780403137,9.040682868999284e-08,-0.7150989770889282,-0.25477302074432373,0.0,2.946138381958008,-1.7230510711669922,-1.5340083837509155,12.75,0.0,2.876758575439453,-1.4634132385253906,-1.5340083837509155,14.5,0.0,2.799510955810547,-1.1512041091918945,-1.5340083837509155,18.0,0.0,2.665400505065918,-0.9083747863769531,-0.19175104796886444,23.75,0.0,2.583146095275879,-0.630497932434082,-1.342257335782051,29.25,0.0,2.545952796936035,-0.49102306365966797,-1.342257335782051,31.25,0.0,2.5202035903930664,-0.40090084075927734,-1.342257335782051,26.0,0.0,1.7434358596801758,-1.3647079467773438,0.0,17.25,0.0,2.959012985229492,-0.7603168487548828,0.0,18.25,0.0,2.8624534606933594,-0.2592802047729492,0.0,26.5,,,,,,,,,,,,,,,,,,,,,,,,,
0.0,4.59002009733922e-08,2.5369808673858643,-0.8198177218437195,1.3797991016417654e-07,-1.0352632999420166,-0.5202847123146057,7.182284633699965e-08,-0.7802009582519531,-0.3117350935935974,0.0,2.6407241821289062,-1.429438591003418,-0.9587552398443222,16.5,0.0,2.812027931213379,-1.611471176147461,0.19175104796886444,14.75,0.0,2.523064613342285,-0.9698867797851562,-1.1505062878131866,27.0,0.0,2.6214122772216797,-1.101851463317871,-1.1505062878131866,22.75,0.0,3.1102895736694336,-1.4058351516723633,0.19175104796886444,13.25,0.0,2.410411834716797,-0.7381439208984375,-1.1505062878131866,29.25,0.0,2.342104911804199,-0.628352165222168,-1.1505062878131866,30.5,0.0,2.3195743560791016,-0.4277229309082031,-1.1505062878131866,24.75,,,,,,,,,,,,,,,,,,,,,,,,,,,,,,,,,,,
0.0,4.317704593859162e-08,2.4108574390411377,-0.9396119117736816,1.2250845315975312e-07,-1.1598029136657715,-0.6671075224876404,5.7072725212492514e-08,-0.8355260491371155,-0.40885129570961,0.0,2.2562742233276367,-1.0761022567749023,-1.1505062878131866,25.5,0.0,2.4805068969726562,-1.1401176452636719,-1.1505062878131866,24.25,0.0,2.604961395263672,-1.1998414993286133,-0.19175104796886444,21.0,0.0,2.7254819869995117,-1.295328140258789,-0.19175104796886444,18.0,0.0,2.8728246688842773,-1.3800859451293945,-0.7670041918754578,14.25,0.0,2.098560333251953,-0.8894205093383789,-1.1505062878131866,30.0,0.0,2.1425485610961914,-0.8994340896606445,-1.1505062878131866,30.25,0.0,2.9811859130859375,-1.548171043395996,0.0,17.5,0.0,2.810239791870117,-0.6959438323974609,0.0,21.0,,,,,,,,,,,,,,,,,,,,,,,,,,,,,,
0.0,4.064349923282862e-08,2.2930777072906494,-1.079032301902771,1.0774569147997681e-07,-1.23935866355896,-0.8478367924690247,4.3697660601083044e-08,-0.8190694451332092,-0.5432513356208801,0.0,2.1064281463623047,-1.2903213500976562,-1.5340083837509155,13.75,0.0,2.4003982543945312,-1.4340877532958984,-1.5340083837509155,14.5,0.0,2.5817155838012695,-1.4376640319824219,-0.3835020959377289,15.0,0.0,2.708315849304199,-1.4816522598266602,-0.3835020959377289,16.25,0.0,2.754092216491699,-1.6046762466430664,0.19175104796886444,13.5,0.0,2.0416975021362305,-0.9377002716064453,-0.5752531439065933,23.5,0.0,2.0334720611572266,-0.8575916290283203,-0.5752531439065933,26.75,0.0,2.972245216369629,-1.5474557876586914,0.0,16.5,,,,,,,,,,,,,,,,,,,,,,,,,,,,,,,,,,,
0.0,3.784316504606977e-08,2.140209436416626,-1.205108404159546,9.293992064840495e-08,-1.3594026565551758,-0.9818223714828491,3.098142897783873e-08,-0.8487046360969543,-0.6205548644065857,0.0,1.796722412109375,-1.1898279190063477,0.19175104796886444,25.0,0.0,1.866459846496582,-1.3207197189331055,0.19175104796886444,21.75,0.0,2.0835399627685547,-1.352548599243164,-1.5340083837509155,13.25,0.0,2.5295019149780273,-1.509547233581543,-1.5340083837509155,14.0,0.0,2.6139020919799805,-1.6082525253295898,-0.7670041918754578,13.75,0.0,1.7963647842407227,-0.9262561798095703,-1.1505062878131866,14.25,0.0,1.7827749252319336,-0.7277727127075195,-1.1505062878131866,12.0,0.0,2.670407295227051,-1.1229515075683594,0.0,19.5,,,,,,,,,,,,,,,,,,,,,,,,,,,,,,,,,,,
0.0,3.7774615435637315e-08,1.9937130212783813,-1.321390986442566,8.266508189080923e-08,-1.4451624155044556,-1.0856348276138306,2.2082151218683066e-08,-0.8358395099639893,-0.670873761177063,0.0,1.7352104187011719,-1.1419057846069336,-0.19175104796886444,13.25,0.0,1.7906427383422852,-1.2727975845336914,-0.19175104796886444,23.0,0.0,1.9108057022094727,-1.294255256652832,-0.19175104796886444,19.5,0.0,2.260565757751465,-1.4551877975463867,-1.72575943171978,12.5,0.0,2.119302749633789,-1.336812973022461,-0.3835020959377289,12.75,0.0,2.024531364440918,-1.0221004486083984,0.0,27.75,0.0,2.651810646057129,-1.1522769927978516,0.0,20.25,,,,,,,,,,,,,,,,,,,,,,,,,,,,,,,,,,,,,,,,
0.0,3.6408859926950754e-08,1.8523316383361816,-1.4209259748458862,7.122743284071476e-08,-1.4886653423309326,-1.159607172012329,1.3067639414998666e-08,-0.7669984102249146,-0.7061707377433777,0.0,1.7094612121582031,-1.2981891632080078,-0.19175104796886444,26.25,0.0,1.6179084777832031,-1.0553598403930664,0.19175104796886444,13.0,0.0,1.6443729400634766,-1.2284517288208008,-0.19175104796886444,17.5,0.0,1.8807649612426758,-1.2767314910888672,-0.19175104796886444,20.75,0.0,2.097487449645996,-1.2992620468139648,-0.7670041918754578,12.25,0.0,2.6514530181884766,-1.1469125747680664,0.0,20.75,,,,,,,,,,,,,,,,,,,,,,,,,,,,,,,,,,,,,,,,,,,,,
0.0,3.557728689429496e-08,1.7366809844970703,-1.4971235990524292,6.140186314951279e-08,-1.4675731658935547,-1.1828113794326782,5.786426449105875e-09,-0.6395727396011353,-0.6974809765815735,0.0,1.571059226989746,-1.0775327682495117,0.19175104796886444,12.75,0.0,1.660466194152832,-1.1254549026489258,0.19175104796886444,14.5,0.0,1.7377138137817383,-1.2542009353637695,-0.19175104796886444,19.25,0.0,1.9290447235107422,-1.267075538635254,-0.19175104796886444,16.0,0.0,1.9315481185913086,-1.1444091796875,0.0,28.5,0.0,2.6493072509765625,-1.1622905731201172,0.0,20.5,,,,,,,,,,,,,,,,,,,,,,,,,,,,,,,,,,,,,,,,,,,,,
0.0,3.406176452003251e-10,3.055609703063965,-0.12901310622692108,4.5051330721523897e-11,-0.3149920105934143,1.0474205017089844,-4.227386218857987e-10,-0.4300071895122528,0.6850720643997192,0.0,2.843499183654785,-1.5538930892944336,-0.3835020959377289,12.75,0.0,2.9189586639404297,-0.7953643798828125,-0.3835020959377289,16.25,0.0,2.8030872344970703,0.04506111145019531,-0.7670041918754578,21.5,0.0,2.848505973815918,-0.030755996704101562,-0.7670041918754578,20.5,0.0,2.738356590270996,0.09655952453613281,-0.5752531439065933,15.0,0.0,3.290891647338867,-0.9673833847045898,0.0,21.0,0.0,3.1996965408325195,-0.7224082946777344,0.0,23.5,0.0,3.049135208129883,-0.23031234741210938,0.0,24.0,,,,,,,,,,,,,,,,,,,,,,,,,,,,,,,,,,,
0.0,3.0181368515513896e-10,3.001692533493042,-0.013152889907360077,-4.629423927537957e-11,-0.38440701365470886,1.1283345222473145,-4.5212153465534755e-10,-0.4525320529937744,0.6961753964424133,0.0,2.9082298278808594,-1.6400814056396484,-0.5752531439065933,14.0,0.0,2.7916431427001953,-1.3990402221679688,-0.5752531439065933,26.25,0.0,2.810955047607422,-1.4820098876953125,-0.5752531439065933,22.5,0.0,2.7837753295898438,-1.2159347534179688,-0.5752531439065933,21.5,0.0,2.7129650115966797,0.059723854064941406,-0.3835020959377289,17.25,0.0,2.7501583099365234,0.032901763916015625,-0.3835020959377289,21.0,0.0,3.2848119735717773,-0.9827613830566406,0.0,20.75,0.0,3.1903982162475586,-0.7914304733276367,0.0,23.75,0.0,3.0645132064819336,-0.3819465637207031,0.0,24.0,,,,,,,,,,,,,,,,,,,,,,,,,,,,,,
0.0,2.3607987786888884e-10,2.9517877101898193,0.06344731152057648,-1.6106613265343128e-10,-0.41450732946395874,1.1395180225372314,-4.930196806363085e-10,-0.40972915291786194,0.6512619256973267,0.0,2.4805068969726562,-1.9179582595825195,-0.7670041918754578,22.5,0.0,2.4493932723999023,-1.8006563186645508,-0.7670041918754578,17.75,0.0,2.7147531509399414,-1.7412900924682617,-0.7670041918754578,20.5,0.0,3.0434131622314453,-1.4494657516479492,-0.19175104796886444,14.0,0.0,2.705097198486328,-0.1773834228515625,-0.19175104796886444,17.0,0.0,2.742648124694824,-0.1659393310546875,-0.19175104796886444,21.0,0.0,2.868533134460449,0.09834766387939453,-0.19175104796886444,18.0,0.0,3.2962560653686523,-1.293182373046875,0.0,14.5,0.0,2.980470657348633,-0.8976459503173828,0.0,23.75,0.0,3.2029151916503906,-1.1837482452392578,0.0,18.5,,,,,,,,,,,,,,,,,,,,,,,,,
0.0,2.1750816425747388e-10,2.9082882404327393,0.18065541982650757,-2.1036809794150457e-10,-0.4554802477359772,1.2046442031860352,0.0,0.0,0.0,0.0,3.0308961868286133,-1.4655590057373047,-1.342257335782051,12.5,0.0,2.737283706665039,-1.1873245239257812,-0.19175104796886444,20.25,0.0,2.8241872787475586,-1.2774467468261719,-0.19175104796886444,21.25,0.0,2.9425621032714844,-1.2985467910766602,-0.19175104796886444,19.25,0.0,2.6972293853759766,-0.9212493896484375,0.3835020959377289,16.0,,,,,,,,,,,,,,,,,,,,,,,,,,,,,,,,,,,,,,,,,,,,,,,,,,
0.0,1.9647135307554464e-10,2.8627402782440186,0.3011198341846466,-2.1036809794150457e-10,-0.4554802477359772,1.2046442031860352,0.0,0.0,0.0,0.0,2.685070037841797,-1.227736473083496,-0.19175104796886444,19.5,0.0,2.7948617935180664,-1.28173828125,-0.9587552398443222,18.75,0.0,2.5892257690429688,-1.1444091796875,-0.7670041918754578,17.0,0.0,2.9382705688476562,-1.2770891189575195,-0.7670041918754578,14.5,,,,,,,,,,,,,,,,,,,,,,,,,,,,,,,,,,,,,,,,,,,,,,,,,,,,,,,
0.0,1.754345418936154e-10,2.817192316055298,0.42158424854278564,-2.1036809794150457e-10,-0.4554802477359772,1.2046442031860352,0.0,0.0,0.0,0.0,2.465486526489258,-1.3840198516845703,-0.9587552398443222,18.75,0.0,2.656102180480957,-1.2420415878295898,-0.9587552398443222,20.25,0.0,2.914309501647949,-1.4308691024780273,-0.5752531439065933,14.25,0.0,2.994418144226074,-1.582503318786621,-0.5752531439065933,12.25,0.0,2.8231143951416016,-1.200556755065918,-0.9587552398443222,17.5,0.0,2.373218536376953,-0.8053779602050781,-0.7670041918754578,12.0,0.0,2.6296377182006836,-0.9752511978149414,-0.9587552398443222,18.25,0.0,2.579212188720703,-0.5382299423217773,-0.7670041918754578,15.75,0.0,1.7026662826538086,-1.4355182647705078,0.0,19.0,0.0,1.8274784088134766,-1.4208555221557617,0.0,18.75,0.0,3.082394599914551,-1.8028020858764648,0.0,12.25,,,,,,,,,,,,,,,,,,,,
0.0,1.5439773071168617e-10,2.771644353866577,0.5420486927032471,-2.1036809794150457e-10,-0.4554802477359772,1.2046442031860352,0.0,0.0,0.0,0.0,2.5484561920166016,-1.1698007583618164,-0.7670041918754578,24.5,0.0,2.590656280517578,-1.2799501419067383,-0.7670041918754578,25.25,0.0,2.6922225952148438,-1.3142824172973633,-1.5340083837509155,19.25,0.0,2.8542280197143555,-1.4226436614990234,-1.5340083837509155,13.0,0.0,2.483367919921875,-0.9627342224121094,-1.342257335782051,20.25,0.0,2.3850202560424805,-0.8028745651245117,-1.342257335782051,15.5,0.0,1.6990900039672852,-1.4280080795288086,0.0,21.5,0.0,2.167224884033203,-1.051783561706543,0.0,20.5,0.0,2.9947757720947266,-1.582503318786621,0.0,14.25,,,,,,,,,,,,,,,,,,,,,,,,,,,,,,
0.0,1.3336091952975693e-10,2.7260963916778564,0.6625131368637085,-2.1036809794150457e-10,-0.4554802477359772,1.2046442031860352,0.0,0.0,0.0,0.0,2.593874931335449,-1.4834403991699219,-0.7670041918754578,16.0,0.0,2.7583837509155273,-1.6390085220336914,-0.7670041918754578,12.25,0.0,2.3932456970214844,-1.12152099609375,-1.342257335782051,23.75,0.0,2.5048255920410156,-1.145482063293457,-0.7670041918754578,26.75,0.0,2.5484561920166016,-1.245260238647461,-0.7670041918754578,22.5,0.0,2.158999443054199,-0.8189678192138672,-2.109261527657509,17.0,0.0,2.2923946380615234,-0.8790493011474609,-1.342257335782051,19.75,0.0,1.773834228515625,-1.3375282287597656,0.0,21.75,0.0,2.1414756774902344,-1.1022090911865234,0.0,20.75,0.0,3.0248165130615234,-1.5381574630737305,0.0,14.75,,,,,,,,,,,,,,,,,,,,,,,,,
0.0,1.1232410834782769e-10,2.6805484294891357,0.7829775810241699,-2.1036809794150457e-10,-0.4554802477359772,1.2046442031860352,0.0,0.0,0.0,0.0,2.4368762969970703,-1.4162063598632812,-1.5340083837509155,14.25,0.0,2.2873878479003906,-1.1379718780517578,-0.9587552398443222,20.75,0.0,2.3778676986694336,-1.268148422241211,-0.7670041918754578,17.25,0.0,2.042055130004883,-0.7685422897338867,-1.342257335782051,23.75,0.0,2.1386146545410156,-0.9427070617675781,-0.9587552398443222,20.75,0.0,2.0052194595336914,-0.7134675979614258,-1.342257335782051,14.25,0.0,1.811385154724121,-1.2688636779785156,0.0,23.5,0.0,2.066373825073242,-1.1740922927856445,0.0,22.25,0.0,3.0215978622436523,-1.543879508972168,0.0,14.5,,,,,,,,,,,,,,,,,,,,,,,,,,,,,,
0.0,9.128729716589845e-11,2.635000467300415,0.9034420251846313,-2.1036809794150457e-10,-0.4554802477359772,1.2046442031860352,0.0,0.0,0.0,0.0,1.9565820693969727,-1.1512041091918945,-0.19175104796886444,22.5,0.0,2.0220279693603516,-1.2634992599487305,-0.7670041918754578,24.75,0.0,2.1371841430664062,-1.3003349304199219,-0.7670041918754578,22.75,0.0,2.3267269134521484,-1.2763738632202148,-0.7670041918754578,16.5,0.0,2.456545829772949,-1.444101333618164,-1.1505062878131866,12.0,0.0,1.7995834350585938,-1.2749433517456055,0.0,25.25,0.0,1.9894838333129883,-1.2727975845336914,0.0,23.75,0.0,2.754807472229004,-1.4237165451049805,0.0,16.5,0.0,2.9153823852539062,-1.4469623565673828,0.0,16.0,,,,,,,,,,,,,,,,,,,,,,,,,,,,,,
0.0,7.025048598396921e-11,2.5894525051116943,1.0239064693450928,-2.1036809794150457e-10,-0.4554802477359772,1.2046442031860352,0.0,0.0,0.0,0.0,1.788496971130371,-1.028895378112793,-0.3835020959377289,15.5,0.0,1.8721818923950195,-1.0875463485717773,-0.3835020959377289,21.5,0.0,2.0592212677001953,-1.1955499649047852,-0.19175104796886444,19.75,0.0,2.237677574157715,-1.225590705871582,-0.7670041918754578,20.75,0.0,2.3213624954223633,-1.273512840270996,-0.19175104796886444,14.0,0.0,1.7917156219482422,-1.2685060501098633,0.0,27.5,0.0,1.9268989562988281,-1.3328790664672852,0.0,26.0,,,,,,,,,,,,,,,,,,,,,,,,,,,,,,,,,,,,,,,,
0.0,-6.864390161354095e-05,2.881669282913208,-0.4192012846469879,-0.0009419854613952339,-0.530782163143158,-0.13130414485931396,-0.0009087664075195789,-0.3978964686393738,-0.170601487159729,0.0,2.937197685241699,-2.0384788513183594,-0.5752531439065933,12.25,0.0,3.0198097229003906,-1.5342235565185547,-0.7670041918754578,14.75,0.0,2.995133399963379,-1.2366771697998047,-0.7670041918754578,19.0,0.0,2.928614616394043,-0.9555816650390625,-0.7670041918754578,21.0,0.0,2.8291940689086914,-0.37872791290283203,-0.3835020959377289,23.5,0.0,2.7523040771484375,-0.0997781753540039,-0.3835020959377289,26.25,0.0,2.7008056640625,-0.07867813110351562,-0.5752531439065933,22.25,,,,,,,,,,,,,,,,,,,,,,,,,,,,,,,,,,,,,,,,
0.0,-0.00011090737825725228,2.7974586486816406,-0.5629143118858337,-0.0009561424376443028,-0.6824003458023071,-0.3566976487636566,-0.0008630517404526472,-0.5769026279449463,-0.33102017641067505,0.0,2.9042959213256836,-1.4072656631469727,-1.1505062878131866,20.5,0.0,2.967953681945801,-1.5624761581420898,-1.5340083837509155,15.0,0.0,2.7462244033813477,-1.072525978088379,-0.9587552398443222,23.25,0.0,2.840280532836914,-1.2302398681640625,-1.1505062878131866,22.5,0.0,2.736210823059082,-0.5457401275634766,-0.19175104796886444,22.0,0.0,2.651095390319824,-0.37872791290283203,-0.5752531439065933,17.5,0.0,2.486586570739746,0.19240379333496094,-0.5752531439065933,12.25,,,,,,,,,,,,,,,,,,,,,,,,,,,,,,,,,,,,,,,,
0.0,-0.00014691670367028564,2.6825921535491943,-0.6279656887054443,-0.0009556639124639332,-0.8903278112411499,-0.40920066833496094,-0.0008103326545096934,-0.8194414973258972,-0.31721365451812744,0.0,2.780914306640625,-1.2878179550170898,-1.1505062878131866,19.75,0.0,2.802729606628418,-1.5141963958740234,-1.72575943171978,16.25,0.0,2.6786327362060547,-1.130819320678711,-1.1505062878131866,21.5,0.0,2.624630928039551,-0.6126165390014648,-1.1505062878131866,25.25,0.0,2.5244951248168945,-0.4380941390991211,-1.1505062878131866,21.0,0.0,2.561330795288086,-0.502467155456543,-1.1505062878131866,27.25,0.0,3.202199935913086,-1.9894838333129883,0.0,14.5,,,,,,,,,,,,,,,,,,,,,,,,,,,,,,,,,,,,,,,,
0.0,-0.00018174262368120253,2.5501279830932617,-0.7938432097434998,-0.0009597373427823186,-1.0559126138687134,-0.6455915570259094,-0.0007663221331313252,-0.9233055114746094,-0.48260653018951416,0.0,1.9587278366088867,-1.1258125305175781,0.19175104796886444,21.75,0.0,2.595663070678711,-1.2273788452148438,-1.5340083837509155,21.75,0.0,2.66110897064209,-1.3568401336669922,-0.9587552398443222,17.5,0.0,2.408266067504883,-0.9173154830932617,-0.9587552398443222,25.5,0.0,2.511262893676758,-1.106858253479004,-1.5340083837509155,24.25,0.0,2.296328544616699,-0.8089542388916016,-0.9587552398443222,24.75,0.0,3.1059980392456055,-1.8156766891479492,0.0,12.5,0.0,3.0040740966796875,-1.567840576171875,0.0,15.0,,,,,,,,,,,,,,,,,,,,,,,,,,,,,,,,,,,
0.0,-0.00020553388458210975,2.4521684646606445,-1.067384958267212,-0.0009577966993674636,-1.0812798738479614,-1.0912784337997437,-0.0007266314933076501,-0.7805920243263245,-0.8637791872024536,0.0,2.5599002838134766,-1.659393310546875,0.19175104796886444,14.5,0.0,2.837061882019043,-1.9040107727050781,-0.19175104796886444,13.25,0.0,2.3603439331054688,-1.2971162796020508,0.5752531439065933,23.0,0.0,2.4329423904418945,-1.495957374572754,-1.5340083837509155,17.75,0.0,2.816319465637207,-1.6454458236694336,-0.19175104796886444,14.5,0.0,2.2687911987304688,-1.1540651321411133,0.5752531439065933,26.25,0.0,2.1582841873168945,-0.8425712585449219,-0.9587552398443222,21.5,0.0,2.2401809692382812,-0.9427070617675781,0.5752531439065933,25.25,0.0,1.6808509826660156,-1.4812946319580078,0.0,21.5,0.0,2.6274919509887695,-0.3554821014404297,0.0,24.75,,,,,,,,,,,,,,,,,,,,,,,,,
0.0,-0.00024471909273415804,2.31630277633667,-1.1950263977050781,-0.0009584572981111705,-1.2039306163787842,-1.1962803602218628,-0.0006849750061519444,-0.8342086672782898,-0.8726177215576172,0.0,2.2383928298950195,-1.438736915588379,-0.3835020959377289,20.75,0.0,2.3027658462524414,-1.5864372253417969,-1.72575943171978,12.25,0.0,2.0617246627807617,-1.2638568878173828,-0.5752531439065933,19.25,0.0,2.2194385528564453,-1.3532638549804688,-0.3835020959377289,23.75,0.0,2.0209550857543945,-0.8168220520019531,-0.5752531439065933,21.0,,,,,,,,,,,,,,,,,,,,,,,,,,,,,,,,,,,,,,,,,,,,,,,,,,
0.0,-0.0002678862656466663,2.1552655696868896,-1.2974228858947754,-0.0009317347430624068,-1.36990487575531,-1.216046929359436,-0.0006280820816755295,-0.9499675035476685,-0.7838045358657837,0.0,1.770615577697754,-1.2084245681762695,-0.19175104796886444,13.75,0.0,1.8503665924072266,-1.2770891189575195,-0.19175104796886444,24.5,0.0,1.976609230041504,-1.3321638107299805,-0.3835020959377289,25.75,0.0,2.069234848022461,-1.4090538024902344,-2.109261527657509,25.0,0.0,2.1718740463256836,-1.455545425415039,-2.109261527657509,17.5,0.0,1.7824172973632812,-1.326441764831543,0.0,24.25,,,,,,,,,,,,,,,,,,,,,,,,,,,,,,,,,,,,,,,,,,,,,
0.0,-0.0002993003581650555,2.0140693187713623,-1.4029510021209717,-0.0009191519347950816,-1.442170262336731,-1.2811626195907593,-0.0005855361232534051,-0.9075942635536194,-0.7915037274360657,0.0,1.9905567169189453,-1.341104507446289,-1.342257335782051,19.75,0.0,1.8650293350219727,-1.1265277862548828,0.19175104796886444,16.0,0.0,1.89971923828125,-1.1790990829467773,0.19175104796886444,28.5,0.0,1.9286870956420898,-1.2238025665283203,0.19175104796886444,27.0,0.0,1.8357038497924805,-1.267075538635254,0.0,27.5,,,,,,,,,,,,,,,,,,,,,,,,,,,,,,,,,,,,,,,,,,,,,,,,,,
0.0,-0.00031661282991990447,1.906298279762268,-1.4773048162460327,-0.0008866449352353811,-1.4485414028167725,-1.268868327140808,-0.0005340769421309233,-0.8146865367889404,-0.722191572189331,0.0,1.8525123596191406,-1.2112855911254883,-0.3835020959377289,22.0,0.0,1.8239021301269531,-1.1429786682128906,-0.3835020959377289,15.0,0.0,1.8367767333984375,-1.1533498764038086,-0.3835020959377289,27.25,0.0,2.8531551361083984,-1.6679763793945312,0.19175104796886444,13.75,0.0,2.8581619262695312,-1.7902851104736328,0.0,13.5,0.0,2.8814077377319336,-1.5152692794799805,0.0,16.5,,,,,,,,,,,,,,,,,,,,,,,,,,,,,,,,,,,,,,,,,,,,,
0.0,-0.0002992734080180526,1.8591930866241455,-1.554624319076538,-0.0008156248950399458,-1.3247411251068115,-1.2862813472747803,-0.00046546320663765073,-0.583962619304657,-0.7139719128608704,0.0,1.6998052597045898,-1.3550519943237305,0.19175104796886444,12.75,0.0,1.7709732055664062,-1.341104507446289,0.19175104796886444,25.5,0.0,1.8010139465332031,-1.3632774353027344,-0.19175104796886444,23.25,0.0,1.8296241760253906,-1.5385150909423828,-0.19175104796886444,13.5,0.0,3.013014793395996,-1.1268854141235352,0.19175104796886444,15.25,0.0,2.994060516357422,-1.1837482452392578,0.19175104796886444,15.5,0.0,1.8153190612792969,-1.1669397354125977,0.0,12.0,0.0,1.8153190612792969,-1.2431144714355469,0.0,31.5,0.0,1.9387006759643555,-1.2778043746948242,0.0,28.25,0.0,2.8363466262817383,-1.8239021301269531,0.0,13.0,0.0,2.851724624633789,-1.5757083892822266,0.0,16.0,,,,,,,,,,,,,,,,,,,,
0.0,3.568081865523709e-06,2.7763984203338623,-0.7788437604904175,9.345978469355032e-06,-0.5699096918106079,-0.48719552159309387,4.025768021165277e-07,-0.5718470811843872,-0.24364778399467468,0.0,3.084897994995117,-1.4498233795166016,-0.5752531439065933,15.75,0.0,3.2587051391601562,-1.5499591827392578,-0.9587552398443222,14.25,0.0,3.3234357833862305,-1.7720460891723633,-0.9587552398443222,12.25,0.0,2.938985824584961,-1.1097192764282227,-0.9587552398443222,22.0,0.0,2.994060516357422,-1.2552738189697266,-0.9587552398443222,19.5,0.0,2.8395652770996094,-0.9952783584594727,-1.342257335782051,19.0,0.0,2.7344226837158203,-0.4506111145019531,-0.3835020959377289,15.25,0.0,2.578854560852051,-0.2785921096801758,-0.3835020959377289,16.0,0.0,2.5005340576171875,-0.2295970916748047,-0.5752531439065933,12.0,0.0,3.05020809173584,-1.8471479415893555,0.0,14.75,0.0,3.0308961868286133,-1.518845558166504,0.0,19.0,,,,,,,,,,,,,,,,,,,,
0.0,3.24154871123028e-06,2.7137880325317383,-0.7835397720336914,7.824693057045806e-06,-0.6406105160713196,-0.4277269244194031,-5.55217411601916e-07,-0.5994300842285156,-0.16568095982074738,0.0,2.945065498352051,-1.3407468795776367,-0.3835020959377289,19.5,0.0,3.028392791748047,-1.4687776565551758,-0.3835020959377289,16.25,0.0,2.8842687606811523,-1.1390447616577148,-0.9587552398443222,20.25,0.0,2.802729606628418,-0.98419189453125,-0.9587552398443222,22.75,0.0,2.627134323120117,-0.4252195358276367,-0.3835020959377289,19.75,0.0,2.384662628173828,-0.3619194030761719,-0.5752531439065933,18.75,0.0,2.4411678314208984,-0.34797191619873047,-0.5752531439065933,27.75,0.0,2.4629831314086914,-0.30934810638427734,-0.3835020959377289,27.75,0.0,3.022313117980957,-1.897573471069336,0.0,14.5,0.0,2.9947757720947266,-1.5789270401000977,0.0,18.5,0.0,2.5033950805664062,-0.2181529998779297,0.0,20.75,0.0,2.8606653213500977,-0.10693073272705078,0.0,23.75,0.0,2.627849578857422,-0.037550926208496094,0.0,24.25,0.0,2.7387142181396484,0.04112720489501953,0.0,26.0,,,,,
0.0,2.911194997068378e-06,2.6017215251922607,-0.9359163045883179,6.334234058158472e-06,-0.8306447267532349,-0.6124776601791382,-1.4643735539721092e-06,-0.7787612676620483,-0.2889080345630646,0.0,2.0574331283569336,-1.0349750518798828,-1.9175104796886444,14.0,0.0,2.3549795150756836,-1.1419057846069336,-0.7670041918754578,20.0,0.0,2.9314756393432617,-1.4691352844238281,-0.19175104796886444,16.0,0.0,3.0040740966796875,-1.568913459777832,-0.19175104796886444,14.25,0.0,2.2459030151367188,-0.983119010925293,-0.5752531439065933,16.75,0.0,2.523064613342285,-1.1039972305297852,-0.7670041918754578,21.0,0.0,2.658963203430176,-1.1311769485473633,-0.7670041918754578,18.75,0.0,2.8231143951416016,-1.268148422241211,-1.72575943171978,13.75,0.0,3.026604652404785,-1.5292167663574219,0.0,17.5,0.0,2.8667449951171875,-0.3275871276855469,0.0,23.0,0.0,2.5005340576171875,-0.23353099822998047,0.0,20.75,0.0,2.6106834411621094,-0.09799003601074219,0.0,24.25,0.0,2.727627754211426,-0.007152557373046875,0.0,25.25,,,,,,,,,,
0.0,2.864430143745267e-06,2.4674243927001953,-1.031753659248352,5.29988574271556e-06,-1.0151302814483643,-0.6810747385025024,-2.0364329884614563e-06,-0.9178971648216248,-0.3025195300579071,0.0,1.7580986022949219,-1.4280080795288086,-0.19175104796886444,19.25,0.0,2.431154251098633,-1.4401674270629883,-1.72575943171978,14.75,0.0,2.399325370788574,-1.1783838272094727,-0.9587552398443222,23.0,0.0,2.2677183151245117,-0.98419189453125,-1.1505062878131866,22.5,0.0,2.3936033248901367,-0.9491443634033203,-1.1505062878131866,25.5,0.0,1.810312271118164,-1.3089179992675781,0.0,19.5,0.0,3.005862236022949,-1.5145540237426758,0.0,18.0,0.0,2.799868583679199,-0.8547306060791016,0.0,18.25,0.0,2.4733543395996094,-0.33724308013916016,0.0,24.75,0.0,2.5284290313720703,-0.3554821014404297,0.0,27.0,0.0,2.6450157165527344,-0.3619194030761719,0.0,23.5,,,,,,,,,,,,,,,,,,,,
0.0,2.6748780328489374e-06,2.333435535430908,-1.1023904085159302,4.1760031308513135e-06,-1.1350915431976318,-0.7231912016868591,-2.6172322122874903e-06,-0.9317322969436646,-0.31931379437446594,0.0,2.3020505905151367,-1.2749433517456055,-0.3835020959377289,16.5,0.0,1.9437074661254883,-0.9974241256713867,-0.7670041918754578,16.25,0.0,2.0055770874023438,-0.9534358978271484,-0.7670041918754578,31.0,0.0,2.2090673446655273,-1.063227653503418,-0.3835020959377289,23.0,0.0,2.0853281021118164,-0.9427070617675781,-0.7670041918754578,28.0,0.0,2.0148754119873047,-1.0006427764892578,0.0,27.5,0.0,2.6117563247680664,-0.560760498046875,0.0,22.75,0.0,2.4944543838500977,-0.3991127014160156,0.0,26.75,,,,,,,,,,,,,,,,,,,,,,,,,,,,,,,,,,,
0.0,2.38043321587611e-06,2.1958467960357666,-1.1837313175201416,3.0027899811102543e-06,-1.2419497966766357,-0.7824366092681885,-3.192211352143204e-06,-0.9274805784225464,-0.35422492027282715,0.0,1.8732547760009766,-1.0510683059692383,-0.19175104796886444,25.0,0.0,2.1926164627075195,-1.2409687042236328,-0.7670041918754578,18.75,0.0,2.2873878479003906,-1.338958740234375,-0.3835020959377289,12.5,0.0,1.8700361251831055,-0.9516477584838867,-0.9587552398443222,16.25,0.0,2.0377635955810547,-1.0721683502197266,-0.7670041918754578,19.5,0.0,2.9643774032592773,-1.3757944107055664,0.0,19.25,0.0,3.0072927474975586,-1.508474349975586,0.0,16.25,,,,,,,,,,,,,,,,,,,,,,,,,,,,,,,,,,,,,,,,
0.0,2.2368917598214466e-06,2.077054977416992,-1.23408043384552,2.1235548501863377e-06,-1.3141725063323975,-0.7642583847045898,-3.5467444376990898e-06,-0.9079244136810303,-0.3070087432861328,0.0,2.8352737426757812,-1.9605159759521484,0.19175104796886444,12.0,0.0,1.9916296005249023,-1.100778579711914,-0.7670041918754578,19.25,0.0,2.1260976791381836,-1.1047124862670898,-0.7670041918754578,23.25,0.0,2.147555351257324,-1.1551380157470703,-0.7670041918754578,18.5,0.0,1.9530057907104492,-1.0349750518798828,0.0,29.25,0.0,2.9668807983398438,-1.362919807434082,0.0,18.75,,,,,,,,,,,,,,,,,,,,,,,,,,,,,,,,,,,,,,,,,,,,,
0.0,1.7702354853099678e-06,1.9152089357376099,-1.3160110712051392,9.012902069116535e-07,-1.4371296167373657,-0.8111119270324707,-4.094603809789987e-06,-0.9298558235168457,-0.32731732726097107,0.0,1.6186237335205078,-1.1630058288574219,-0.7670041918754578,17.25,0.0,1.64794921875,-1.212000846862793,-0.7670041918754578,23.0,0.0,1.7277002334594727,-1.2423992156982422,-0.7670041918754578,26.75,0.0,1.8868446350097656,-1.272439956665039,-0.3835020959377289,22.5,0.0,2.0395517349243164,-1.3300180435180664,-0.5752531439065933,15.5,0.0,1.9054412841796875,-1.090407371520996,0.0,30.75,0.0,2.9636621475219727,-1.348257064819336,0.0,18.75,0.0,3.0248165130615234,-1.4630556106567383,0.0,15.25,,,,,,,,,,,,,,,,,,,,,,,,,,,,,,,,,,,
0.0,1.406453748131753e-06,1.8250994682312012,-1.353684425354004,-6.245551276151673e-08,-1.4072948694229126,-0.7897151708602905,-4.435451955941971e-06,-0.7885573506355286,-0.3075426518917084,0.0,1.7709732055664062,-1.1740922927856445,0.19175104796886444,15.25,0.0,1.8782615661621094,-1.1762380599975586,-0.5752531439065933,24.5,0.0,2.0023584365844727,-1.1619329452514648,-0.5752531439065933,23.25,0.0,2.1840333938598633,-1.1157989501953125,-0.5752531439065933,17.75,0.0,1.8786191940307617,-1.131892204284668,0.0,31.5,,,,,,,,,,,,,,,,,,,,,,,,,,,,,,,,,,,,,,,,,,,,,,,,,,
0.0,1.0406888577563222e-06,1.730668544769287,-1.4090197086334229,-9.374390401717392e-07,-1.3688104152679443,-0.8154307007789612,-4.699427790910704e-06,-0.6428111791610718,-0.3437318205833435,0.0,1.6683340072631836,-1.259922981262207,-0.19175104796886444,13.25,0.0,1.6683340072631836,-1.2602806091308594,-0.19175104796886444,13.0,0.0,1.8192529678344727,-1.1916160583496094,-0.19175104796886444,18.0,0.0,1.9894838333129883,-1.1368989944458008,-0.19175104796886444,15.75,0.0,1.7766952514648438,-1.1322498321533203,0.0,16.5,0.0,1.8711090087890625,-1.119375228881836,0.0,32.0,,,,,,,,,,,,,,,,,,,,,,,,,,,,,,,,,,,,,,,,,,,,,
0.0,5.633192134979481e-09,2.897101640701294,-0.6339554190635681,1.3305028190302437e-08,-0.48983266949653625,-0.24659670889377594,2.129867393563245e-10,-0.4632580578327179,0.079958476126194,0.0,2.8281211853027344,-1.3582706451416016,-0.5752531439065933,18.25,0.0,2.943277359008789,-1.3890266418457031,-0.19175104796886444,17.0,0.0,3.072381019592285,-1.4269351959228516,-0.19175104796886444,12.5,0.0,2.6890039443969727,-0.1087188720703125,-0.3835020959377289,23.25,0.0,2.7022361755371094,-0.1494884490966797,-0.3835020959377289,25.75,0.0,2.774834632873535,-0.20384788513183594,-0.5752531439065933,19.5,0.0,3.7375688552856445,-1.5031099319458008,0.0,13.25,0.0,2.9354095458984375,-0.09119510650634766,0.0,28.0,,,,,,,,,,,,,,,,,,,,,,,,,,,,,,,,,,,
0.0,5.499456889879184e-09,2.823427438735962,-0.7444664835929871,1.1373630925959333e-08,-0.5868727564811707,-0.38566237688064575,-1.0417734452872196e-09,-0.5205081105232239,-0.0425710529088974,0.0,2.6646852493286133,-1.6522407531738281,-0.5752531439065933,18.5,0.0,2.756953239440918,-1.6912221908569336,-0.7670041918754578,17.5,0.0,2.843141555786133,-0.6501674652099609,-0.5752531439065933,19.0,0.0,2.6149749755859375,-0.5038976669311523,-0.3835020959377289,15.0,0.0,2.722620964050293,-0.5843639373779297,-0.3835020959377289,17.25,0.0,2.962946891784668,-1.7774105072021484,0.0,17.0,0.0,3.1174421310424805,-0.766754150390625,0.0,20.5,,,,,,,,,,,,,,,,,,,,,,,,,,,,,,,,,,,,,,,,
0.0,4.7735757569000725e-09,2.7628462314605713,-0.8555581569671631,8.818281216349533e-09,-0.6354254484176636,-0.5185074210166931,-2.6046438339477618e-09,-0.5063028931617737,-0.15639954805374146,0.0,2.8377771377563477,-1.3529062271118164,0.19175104796886444,16.75,0.0,2.941131591796875,-1.4297962188720703,0.19175104796886444,18.25,0.0,3.010869026184082,-1.5528202056884766,-0.19175104796886444,15.75,0.0,2.7208328247070312,-1.1093616485595703,-1.342257335782051,16.0,0.0,2.627849578857422,-0.7492303848266602,-0.5752531439065933,18.5,0.0,2.5838613510131836,-0.48100948333740234,-0.5752531439065933,18.5,0.0,2.51162052154541,-0.33473968505859375,-0.5752531439065933,12.25,0.0,2.99227237701416,-1.5871524810791016,0.0,15.0,0.0,2.5523900985717773,-0.22101402282714844,0.0,12.5,0.0,2.6865005493164062,-0.2199411392211914,0.0,20.25,,,,,,,,,,,,,,,,,,,,,,,,,
0.0,4.231393013753859e-09,2.6433050632476807,-0.9230719208717346,6.66397248494377e-09,-0.7924891710281372,-0.5457660555839539,-3.834783157685706e-09,-0.6358050107955933,-0.1499931663274765,0.0,1.7766952514648438,-1.2649297714233398,-0.19175104796886444,15.5,0.0,2.611398696899414,-1.2145042419433594,-1.5340083837509155,16.0,0.0,2.6857852935791016,-1.4119148254394531,-1.5340083837509155,12.5,0.0,2.535581588745117,-1.073598861694336,-0.5752531439065933,19.5,0.0,2.4290084838867188,-0.5089044570922852,-0.5752531439065933,18.0,0.0,2.520918846130371,-0.5085468292236328,-0.5752531439065933,20.25,0.0,1.7105340957641602,-1.3793706893920898,0.0,20.75,0.0,2.911090850830078,-1.7355680465698242,0.0,14.75,0.0,2.3345947265625,-0.7814168930053711,0.0,19.0,0.0,2.614617347717285,-0.4266500473022461,0.0,23.0,,,,,,,,,,,,,,,,,,,,,,,,,
0.0,3.747291810185516e-09,2.473261594772339,-0.9782935380935669,4.71331063067737e-09,-1.090368628501892,-0.5039504170417786,-4.887269700049046e-09,-0.9697736501693726,-0.04078494757413864,0.0,2.2448301315307617,-1.0557174682617188,-1.72575943171978,26.25,0.0,2.2562742233276367,-1.1976957321166992,-1.72575943171978,28.0,0.0,2.352476119995117,-1.2323856353759766,-1.72575943171978,25.0,0.0,2.4712085723876953,-1.314997673034668,-1.72575943171978,18.25,0.0,2.202630043029785,-0.905156135559082,-1.72575943171978,18.0,0.0,2.843499183654785,-1.8485784530639648,0.0,15.25,0.0,1.9969940185546875,-1.1597871780395508,0.0,20.25,0.0,2.9418468475341797,-1.410841941833496,0.0,17.5,0.0,2.315998077392578,-0.8672475814819336,0.0,25.25,0.0,2.3946762084960938,-0.9448528289794922,0.0,27.5,0.0,2.6868581771850586,-0.527501106262207,0.0,26.0,0.0,2.9915571212768555,-0.21457672119140625,0.0,17.25,,,,,,,,,,,,,,,
0.0,3.15843751153011e-09,2.3277058601379395,-1.1124770641326904,2.8483180258831453e-09,-1.2254338264465332,-0.6621730327606201,-5.770316668929354e-09,-0.9857048988342285,-0.18265369534492493,0.0,1.9158124923706055,-1.0900497436523438,-0.9587552398443222,24.5,0.0,2.211928367614746,-1.2835264205932617,-0.7670041918754578,23.25,0.0,2.3195743560791016,-1.3432502746582031,-0.19175104796886444,19.25,0.0,2.457261085510254,-1.3833045959472656,-0.19175104796886444,15.0,0.0,2.090334892272949,-1.1043548583984375,-0.9587552398443222,22.75,0.0,2.8399229049682617,-1.8714666366577148,0.0,15.25,0.0,1.9866228103637695,-1.1487007141113281,0.0,22.25,0.0,2.833843231201172,-1.2917518615722656,0.0,15.0,0.0,2.943277359008789,-1.429438591003418,0.0,17.0,0.0,2.7801990509033203,-0.6659030914306641,0.0,18.75,,,,,,,,,,,,,,,,,,,,,,,,,
0.0,2.5754030019697893e-09,2.1976144313812256,-1.2122100591659546,1.1684495593300426e-09,-1.288206696510315,-0.769782304763794,-6.470929569957207e-09,-0.905308723449707,-0.2924003005027771,0.0,2.052783966064453,-1.2230873107910156,-0.19175104796886444,20.5,0.0,2.192258834838867,-1.3196468353271484,-0.19175104796886444,21.25,0.0,2.235889434814453,-1.416921615600586,-0.5752531439065933,17.25,0.0,1.9572973251342773,-0.9284019470214844,-0.19175104796886444,21.25,0.0,1.888275146484375,-0.7996559143066406,-0.9587552398443222,15.25,0.0,1.8607378005981445,-1.248478889465332,0.0,25.5,0.0,2.843499183654785,-1.8407106399536133,0.0,15.25,0.0,2.9489994049072266,-1.4333724975585938,0.0,17.0,0.0,2.349257469177246,-1.0142326354980469,0.0,27.75,0.0,2.665400505065918,-1.043558120727539,0.0,14.5,0.0,2.8488636016845703,-1.2770891189575195,0.0,14.5,0.0,2.513766288757324,-0.9137392044067383,0.0,22.75,,,,,,,,,,,,,,,
0.0,2.1166719488263652e-09,2.0735533237457275,-1.2786903381347656,-2.0150198176693834e-10,-1.3635362386703491,-0.7777773141860962,-6.938920549259819e-09,-0.8916116952896118,-0.27375224232673645,0.0,1.8099546432495117,-1.3850927352905273,-0.5752531439065933,21.25,0.0,2.09963321685791,-1.2191534042358398,-0.5752531439065933,23.0,0.0,2.256631851196289,-1.1655092239379883,-0.9587552398443222,24.0,0.0,2.299189567565918,-1.227736473083496,-0.9587552398443222,18.5,0.0,1.8385648727416992,-1.2949705123901367,0.0,25.0,0.0,2.8052330017089844,-1.902937889099121,0.0,14.25,0.0,2.781987190246582,-1.3833045959472656,0.0,14.0,0.0,2.9050111770629883,-1.518845558166504,0.0,16.25,0.0,2.3725032806396484,-0.962376594543457,0.0,27.75,0.0,2.651810646057129,-1.0339021682739258,0.0,15.0,0.0,2.5244951248168945,-0.8790493011474609,0.0,22.0,,,,,,,,,,,,,,,,,,,,
0.0,1.5397800812166906e-09,1.973248839378357,-1.301407814025879,-1.582372899378015e-09,-1.376160979270935,-0.7123764753341675,-7.3802923772348095e-09,-0.8141108751296997,-0.19877097010612488,0.0,1.7033815383911133,-1.156926155090332,-0.3835020959377289,17.75,0.0,1.8768310546875,-1.141190528869629,-0.3835020959377289,23.0,0.0,2.1257400512695312,-1.1554956436157227,-0.9587552398443222,23.75,0.0,2.244114875793457,-1.1926889419555664,-0.9587552398443222,25.0,0.0,2.2945404052734375,-1.237034797668457,-0.9587552398443222,18.75,0.0,1.794576644897461,-1.3393163681030273,0.0,25.75,0.0,2.755880355834961,-1.4562606811523438,0.0,15.25,0.0,2.8874874114990234,-1.508474349975586,0.0,16.5,0.0,2.615690231323242,-1.1383295059204102,0.0,14.75,,,,,,,,,,,,,,,,,,,,,,,,,,,,,,
0.0,1.034656582632465e-09,1.8736010789871216,-1.3867744207382202,-2.726708858702409e-09,-1.3400614261627197,-0.8124328255653381,-7.636010934675141e-09,-0.6454044580459595,-0.32813721895217896,0.0,1.7273426055908203,-1.1944770812988281,0.3835020959377289,19.25,0.0,1.8171072006225586,-1.2302398681640625,0.3835020959377289,24.0,0.0,1.9991397857666016,-1.192331314086914,-0.19175104796886444,22.75,0.0,2.100706100463867,-1.2502670288085938,-0.3835020959377289,18.75,0.0,2.559542655944824,-1.2248754501342773,0.0,15.0,0.0,2.9207468032836914,-1.4584064483642578,0.0,13.0,,,,,,,,,,,,,,,,,,,,,,,,,,,,,,,,,,,,,,,,,,,,,
0.0,-8.876217122422148e-11,2.9886200428009033,-0.43439674377441406,-7.663773782251582e-11,-0.26031768321990967,-0.08347067981958389,5.382181506030648e-11,-0.1914338767528534,-0.26674574613571167,0.0,3.0215978622436523,-1.0771751403808594,-0.19175104796886444,18.5,0.0,2.980470657348633,-0.8193254470825195,-0.19175104796886444,20.75,0.0,2.8928518295288086,-0.33724308013916016,-0.19175104796886444,21.75,0.0,2.774477005004883,-0.1577138900756836,-0.3835020959377289,21.25,0.0,2.5523900985717773,0.20134449005126953,-0.5752531439065933,12.25,0.0,2.6464462280273438,0.171661376953125,-0.5752531439065933,19.25,0.0,3.2472610473632812,-1.337885856628418,0.0,16.5,0.0,3.1796693801879883,-0.9984970092773438,0.0,23.75,0.0,3.211855888366699,-1.1758804321289062,0.0,21.5,0.0,3.046274185180664,-0.308990478515625,0.0,23.25,0.0,2.832770347595215,0.054717063903808594,0.0,26.5,0.0,2.8924942016601562,-0.037550926208496094,0.0,27.75,,,,,,,,,,,,,,,
0.0,-6.949557596058753e-11,2.941045045852661,-0.46966952085494995,-3.741319754002603e-11,-0.3339764177799225,-0.15136078000068665,7.514951161358141e-11,-0.26666778326034546,-0.29770565032958984,0.0,2.9325485229492188,-1.9980669021606445,-0.5752531439065933,15.0,0.0,2.982974052429199,-0.9512901306152344,-0.3835020959377289,26.75,0.0,3.055572509765625,-1.0335445404052734,-0.3835020959377289,24.25,0.0,3.131747245788574,-1.1658668518066406,-0.3835020959377289,18.5,0.0,2.878546714782715,-0.4202127456665039,-0.19175104796886444,25.0,0.0,2.7594566345214844,-0.11372566223144531,-0.5752531439065933,26.75,0.0,2.597808837890625,0.034332275390625,-0.5752531439065933,12.0,0.0,2.7015209197998047,-0.02753734588623047,-0.5752531439065933,23.0,0.0,3.220796585083008,-1.392960548400879,0.0,15.0,0.0,3.1435489654541016,-1.0339021682739258,0.0,24.25,0.0,3.2079219818115234,-1.0939836502075195,0.0,21.0,0.0,3.063082695007324,-0.5682706832885742,0.0,24.0,0.0,2.8738975524902344,-0.25713443756103516,0.0,25.5,0.0,2.695441246032715,0.05435943603515625,0.0,23.75,0.0,2.7608871459960938,-0.00035762786865234375,0.0,27.5
0.0,-5.3282590145586894e-11,2.8797082901000977,-0.5823134183883667,-4.925575572412022e-12,-0.42417648434638977,-0.34437209367752075,9.094507091855775e-11,-0.34620964527130127,-0.43349242210388184,0.0,2.985835075378418,-1.9794702529907227,-0.9587552398443222,12.0,0.0,3.0230283737182617,-1.4358758926391602,-0.5752531439065933,17.25,0.0,2.9332637786865234,-1.1336803436279297,-0.5752531439065933,24.25,0.0,2.9840469360351562,-1.2270212173461914,-0.5752531439065933,22.25,0.0,2.8334856033325195,-0.8214712142944336,-0.19175104796886444,21.75,0.0,2.6814937591552734,-0.5553960800170898,-0.19175104796886444,22.5,0.0,2.5985240936279297,-0.31578540802001953,-0.5752531439065933,21.75,0.0,2.513408660888672,-0.051140785217285156,-0.5752531439065933,17.25,0.0,3.2486915588378906,-1.2996196746826172,0.0,13.75,0.0,3.190755844116211,-1.063227653503418,0.0,21.5,0.0,2.8935670852661133,-0.34117698669433594,0.0,25.75,0.0,2.678990364074707,0.07832050323486328,0.0,23.75,0.0,2.761960029602051,0.016808509826660156,0.0,27.25,0.0,2.5548934936523438,0.22137165069580078,0.0,16.75,,,,,
0.0,-3.94290676497544e-11,2.8120923042297363,-0.6319252252578735,2.199282422843396e-11,-0.5318779945373535,-0.3995574414730072,1.0232918679076164e-10,-0.45594754815101624,-0.43227848410606384,0.0,2.9271841049194336,-1.622915267944336,-1.1505062878131866,13.75,0.0,2.890348434448242,-1.3507604598999023,-0.7670041918754578,18.0,0.0,2.7680397033691406,-0.8847713470458984,-0.7670041918754578,26.25,0.0,2.8553009033203125,-1.0442733764648438,-0.7670041918754578,23.5,0.0,2.709031105041504,-0.3758668899536133,-0.19175104796886444,26.75,0.0,2.6400089263916016,-0.2435445785522461,-0.5752531439065933,25.25,0.0,2.559542655944824,-0.0050067901611328125,-0.5752531439065933,18.0,0.0,3.2529830932617188,-1.268148422241211,0.0,14.25,0.0,3.195047378540039,-1.0596513748168945,0.0,21.75,0.0,2.8753280639648438,-0.54931640625,0.0,26.0,0.0,2.670764923095703,0.08225440979003906,0.0,24.5,0.0,2.751946449279785,0.003933906555175781,0.0,27.25,0.0,2.5588274002075195,0.1684427261352539,0.0,17.0,,,,,,,,,,
0.0,-2.6876631128991413e-11,2.690701484680176,-0.7025182247161865,4.4748552086026905e-11,-0.7901625633239746,-0.45567038655281067,1.1049738901647288e-10,-0.781230092048645,-0.40502482652664185,0.0,2.7970075607299805,-1.567840576171875,-1.5340083837509155,18.75,0.0,2.856731414794922,-1.7795562744140625,-1.5340083837509155,15.5,0.0,2.797722816467285,-1.1998414993286133,-1.5340083837509155,20.75,0.0,2.745509147644043,-1.0210275650024414,-1.5340083837509155,23.75,0.0,2.4536848068237305,-0.5818605422973633,-0.9587552398443222,26.75,0.0,2.3685693740844727,-0.469207763671875,-0.9587552398443222,14.5,0.0,2.490878105163574,-0.5021095275878906,-0.9587552398443222,29.75,0.0,2.6292800903320312,-0.49674510955810547,-0.9587552398443222,24.0,0.0,1.7784833908081055,-1.4358758926391602,0.0,19.75,0.0,2.865314483642578,-0.5679130554199219,0.0,27.0,0.0,2.735137939453125,-0.16129016876220703,0.0,28.25,,,,,,,,,,,,,,,,,,,,
0.0,-1.6789694634589125e-11,2.5449423789978027,-0.8603099584579468,6.216376025047765e-11,-1.0486704111099243,-0.6610784530639648,1.1465882410188755e-10,-1.0389705896377563,-0.5179218649864197,0.0,2.672553062438965,-1.4780759811401367,-1.1505062878131866,18.75,0.0,2.731204032897949,-1.662611961364746,-0.9587552398443222,15.0,0.0,2.2101402282714844,-1.0117292404174805,-1.1505062878131866,23.25,0.0,2.296328544616699,-1.0728836059570312,-1.342257335782051,22.75,0.0,2.635359764099121,-1.2949705123901367,-1.1505062878131866,20.25,0.0,2.1353960037231445,-0.9562969207763672,-1.1505062878131866,17.5,0.0,2.519845962524414,-1.0854005813598633,-1.72575943171978,20.5,0.0,1.8407106399536133,-1.3164281845092773,0.0,21.5,,,,,,,,,,,,,,,,,,,,,,,,,,,,,,,,,,,
0.0,-7.06486692064745e-12,2.4395029544830322,-1.0177600383758545,7.764503623386432e-11,-1.1325228214263916,-0.8854275941848755,1.1728468196636754e-10,-0.9939913153648376,-0.684567391872406,0.0,2.6693344116210938,-1.7126798629760742,-1.72575943171978,12.75,0.0,2.6013851165771484,-1.5259981155395508,0.5752531439065933,17.75,0.0,2.362489700317383,-1.0854005813598633,-1.5340083837509155,17.75,0.0,2.523064613342285,-1.245260238647461,0.5752531439065933,21.5,0.0,2.5867223739624023,-1.3360977172851562,0.5752531439065933,20.0,0.0,2.1429061889648438,-0.7556676864624023,-1.1505062878131866,17.25,0.0,2.249479293823242,-0.7631778717041016,-0.9587552398443222,19.25,0.0,1.8281936645507812,-1.3293027877807617,0.0,21.75,,,,,,,,,,,,,,,,,,,,,,,,,,,,,,,,,,,
0.0,1.425439085343816e-12,2.310403823852539,-1.132947564125061,8.968150527755014e-11,-1.2208858728408813,-1.0184504985809326,1.1751818962402183e-10,-0.9506857395172119,-0.7620164752006531,0.0,1.8596649169921875,-1.1276006698608398,0.19175104796886444,22.75,0.0,2.1146535873413086,-0.9108781814575195,0.19175104796886444,19.75,0.0,2.2677183151245117,-1.0135173797607422,0.19175104796886444,14.75,0.0,1.8360614776611328,-1.3232231140136719,0.0,23.25,,,,,,,,,,,,,,,,,,,,,,,,,,,,,,,,,,,,,,,,,,,,,,,,,,,,,,,
0.0,7.870606943960468e-12,2.1956748962402344,-1.2318235635757446,9.716038390505943e-11,-1.310582160949707,-1.0700886249542236,1.1468681559989591e-10,-0.9603990912437439,-0.7297753691673279,0.0,2.201557159423828,-1.2538433074951172,-0.9587552398443222,16.5,0.0,2.3288726806640625,-1.4770030975341797,-1.342257335782051,13.25,0.0,2.4976730346679688,-1.4816522598266602,-1.342257335782051,15.25,0.0,2.937912940979004,-1.8593072891235352,0.19175104796886444,12.25,0.0,2.004861831665039,-0.9773969650268555,-0.3835020959377289,18.25,0.0,2.1153688430786133,-1.056075096130371,-0.7670041918754578,18.5,0.0,3.05020809173584,-1.342177391052246,0.0,17.25,,,,,,,,,,,,,,,,,,,,,,,,,,,,,,,,,,,,,,,,
0.0,1.4778808385407238e-11,2.065147638320923,-1.3423826694488525,1.0408857803456684e-10,-1.388132929801941,-1.1521512269973755,1.11717302075931e-10,-0.9319580793380737,-0.7466728091239929,0.0,2.0853281021118164,-1.3997554779052734,-0.5752531439065933,18.75,0.0,2.135753631591797,-1.5871524810791016,-0.5752531439065933,12.75,0.0,2.0231008529663086,-1.247406005859375,-0.5752531439065933,20.25,0.0,1.969456672668457,-1.0317564010620117,0.19175104796886444,19.25,0.0,1.909017562866211,-1.1830329895019531,0.0,24.25,0.0,3.026247024536133,-1.3664960861206055,0.0,16.5,,,,,,,,,,,,,,,,,,,,,,,,,,,,,,,,,,,,,,,,,,,,,
0.0,1.9390395539220506e-11,1.938029170036316,-1.410287857055664,1.0661920651910961e-10,-1.4522353410720825,-1.1323152780532837,1.0602002609161332e-10,-0.9082515835762024,-0.6591601371765137,0.0,1.6951560974121094,-1.1512041091918945,0.19175104796886444,14.0,0.0,1.8260478973388672,-1.248478889465332,-0.19175104796886444,20.5,0.0,1.9758939743041992,-1.3439655303955078,-0.9587552398443222,21.75,0.0,2.0917654037475586,-1.376509666442871,-0.9587552398443222,20.0,0.0,2.2112131118774414,-1.4019012451171875,-0.9587552398443222,13.0,0.0,1.818537712097168,-1.2860298156738281,0.0,25.0,0.0,2.9071569442749023,-1.6962289810180664,0.0,14.0,,,,,,,,,,,,,,,,,,,,,,,,,,,,,,,,,,,,,,,,
0.0,2.47914640205682e-11,1.8301265239715576,-1.4849735498428345,1.095753765500973e-10,-1.4446239471435547,-1.1532573699951172,1.0106453174341112e-10,-0.7891779541969299,-0.6472774744033813,0.0,1.71661376953125,-1.226663589477539,0.19175104796886444,17.25,0.0,1.7784833908081055,-1.2280941009521484,0.19175104796886444,23.5,0.0,1.888275146484375,-1.2334585189819336,-0.3835020959377289,19.5,0.0,2.1657943725585938,-1.1315345764160156,-0.19175104796886444,12.25,0.0,1.8353462219238281,-1.2481212615966797,0.0,25.5,,,,,,,,,,,,,,,,,,,,,,,,,,,,,,,,,,,,,,,,,,,,,,,,,,
0.0,3.227091163737761e-11,1.7258703708648682,-1.5627566576004028,1.1443271330513483e-10,-1.4334989786148071,-1.161256194114685,9.76567021693242e-11,-0.6923277974128723,-0.6117262840270996,0.0,1.9015073776245117,-1.2720823287963867,-0.19175104796886444,12.5,0.0,1.866459846496582,-1.1576414108276367,0.19175104796886444,15.5,0.0,1.807093620300293,-1.267075538635254,0.0,25.25,0.0,2.0334720611572266,-1.2044906616210938,0.0,25.0,,,,,,,,,,,,,,,,,,,,,,,,,,,,,,,,,,,,,,,,,,,,,,,,,,,,,,,
0.0,3.440504825480417e-11,1.7301782369613647,-1.5508588552474976,1.1141736144804071e-10,-1.2178149223327637,-1.0221097469329834,8.939952944597707e-11,-0.40947282314300537,-0.46281057596206665,0.0,1.852869987487793,-1.100778579711914,-0.19175104796886444,14.75,0.0,1.9097328186035156,-1.1326074600219727,-0.19175104796886444,22.5,0.0,2.001643180847168,-1.1311769485473633,-0.19175104796886444,20.5,0.0,2.141118049621582,-1.1533498764038086,0.3835020959377289,15.0,0.0,2.061009407043457,-1.4355182647705078,0.0,21.5,0.0,2.298116683959961,-1.46484375,0.0,15.25,,,,,,,,,,,,,,,,,,,,,,,,,,,,,,,,,,,,,,,,,,,,,
0.0,0.008021986111998558,3.0339388847351074,-0.15993666648864746,0.011815600097179413,-0.24551710486412048,0.3474041223526001,0.004209624137729406,-0.1921183466911316,-0.06822540611028671,0.0,3.0688047409057617,-1.9218921661376953,-0.19175104796886444,12.5,0.0,2.9969215393066406,-1.1944770812988281,-0.19175104796886444,19.75,0.0,3.002643585205078,-0.7871389389038086,-0.3835020959377289,20.25,0.0,2.9397010803222656,-0.33867359161376953,-0.3835020959377289,20.0,0.0,2.852797508239746,-0.17845630645751953,-0.5752531439065933,16.5,0.0,3.2923221588134766,-1.296401023864746,0.0,20.25,0.0,3.366708755493164,-1.5184879302978516,0.0,12.0,0.0,3.247976303100586,-1.1858940124511719,0.0,25.0,0.0,2.882838249206543,0.07259845733642578,0.0,23.0,0.0,2.770543098449707,0.21135807037353516,0.0,13.0,,,,,,,,,,,,,,,,,,,,,,,,,
0.0,0.007086767815053463,2.984236240386963,-0.2586694061756134,0.010022221133112907,-0.33195215463638306,0.1260598599910736,0.003064591670408845,-0.2897014021873474,-0.23914697766304016,0.0,3.0291080474853516,-1.1469125747680664,-0.5752531439065933,21.75,0.0,3.144979476928711,-1.234889030456543,-0.3835020959377289,16.5,0.0,2.99227237701416,-0.6773471832275391,-0.5752531439065933,24.0,0.0,2.925753593444824,-0.4552602767944336,-0.5752531439065933,23.75,0.0,2.8438568115234375,-0.17881393432617188,-0.5752531439065933,20.25,0.0,2.7251243591308594,-0.0057220458984375,-0.3835020959377289,14.0,0.0,3.2776594161987305,-1.2860298156738281,0.0,20.5,0.0,2.8842687606811523,0.02288818359375,0.0,23.5,0.0,2.7523040771484375,0.27108192443847656,0.0,13.75,,,,,,,,,,,,,,,,,,,,,,,,,,,,,,
0.0,0.0056992522440850735,2.941243886947632,-0.3230810761451721,0.00787268579006195,-0.4146013855934143,-0.015173278748989105,0.0018033363157883286,-0.3823457956314087,-0.32885804772377014,0.0,2.6857852935791016,-1.4348030090332031,-0.7670041918754578,18.75,0.0,2.9164552688598633,-1.1794567108154297,-0.3835020959377289,24.0,0.0,3.117084503173828,-0.9323358535766602,-0.3835020959377289,20.0,0.0,3.3506155014038086,-1.1372566223144531,-0.5752531439065933,13.0,0.0,3.26693058013916,-0.9516477584838867,-0.5752531439065933,16.75,0.0,2.682209014892578,0.06651878356933594,-0.5752531439065933,22.25,0.0,2.693295478820801,0.09834766387939453,-0.7670041918754578,23.75,0.0,2.798795700073242,0.32258033752441406,-0.7670041918754578,17.0,0.0,3.328084945678711,-1.5864372253417969,0.0,12.75,0.0,3.2973289489746094,-1.248478889465332,0.0,21.0,0.0,2.7347803115844727,0.20062923431396484,0.0,17.0,,,,,,,,,,,,,,,,,,,,
0.0,0.00514694768935442,2.9009721279144287,-0.44095367193222046,0.00664586341008544,-0.43801966309547424,-0.2340075671672821,0.0010846029035747051,-0.35702189803123474,-0.4804314970970154,0.0,2.8742551803588867,-2.2058486938476562,-0.3835020959377289,13.75,0.0,2.9768943786621094,-1.634359359741211,-0.5752531439065933,15.5,0.0,2.881765365600586,-1.3318061828613281,-0.19175104796886444,18.75,0.0,2.9801130294799805,-1.3554096221923828,-0.19175104796886444,19.75,0.0,2.7952194213867188,-0.7946491241455078,-0.3835020959377289,16.0,0.0,2.651810646057129,-0.1480579376220703,-0.5752531439065933,18.5,0.0,2.6979446411132812,-0.20599365234375,-0.3835020959377289,20.0,0.0,3.00443172454834,-2.213001251220703,0.0,13.75,0.0,3.2747983932495117,-1.314997673034668,0.0,18.25,,,,,,,,,,,,,,,,,,,,,,,,,,,,,,
0.0,0.0044482555240392685,2.8145406246185303,-0.5066861510276794,0.005313749425113201,-0.5838863253593445,-0.336751788854599,0.0003172729047946632,-0.517060399055481,-0.5134168863296509,0.0,2.9582977294921875,-1.6665458679199219,-1.5340083837509155,12.5,0.0,2.9293298721313477,-1.3865232467651367,-0.9587552398443222,14.75,0.0,2.9042959213256836,-1.1172294616699219,-0.9587552398443222,19.0,0.0,2.773404121398926,-0.857234001159668,-0.9587552398443222,18.5,0.0,2.641439437866211,-0.46062469482421875,-0.7670041918754578,21.75,0.0,2.5881528854370117,-0.2771615982055664,-0.5752531439065933,23.25,0.0,2.542734146118164,-0.2052783966064453,-0.5752531439065933,17.5,0.0,3.080606460571289,-2.1332502365112305,0.0,13.75,0.0,3.2383203506469727,-1.4891624450683594,0.0,17.0,,,,,,,,,,,,,,,,,,,,,,,,,,,,,,
0.0,0.003650848288089037,2.7428205013275146,-0.7304021120071411,0.003938405774533749,-0.671627402305603,-0.6950821280479431,-0.0004191429470665753,-0.5656347870826721,-0.7636903524398804,0.0,2.7658939361572266,-1.3339519500732422,0.19175104796886444,21.5,0.0,2.8585195541381836,-1.4655590057373047,0.19175104796886444,17.0,0.0,2.9990673065185547,-1.5728473663330078,0.19175104796886444,14.0,0.0,2.6857852935791016,-1.1830329895019531,-1.1505062878131866,22.75,0.0,2.613544464111328,-0.9108781814575195,-1.1505062878131866,22.0,0.0,2.454042434692383,-0.6058216094970703,-0.7670041918754578,16.75,0.0,2.5298595428466797,-0.6844997406005859,-0.7670041918754578,21.0,0.0,1.6286373138427734,-1.3704299926757812,0.0,13.0,0.0,3.2007694244384766,-1.5571117401123047,0.0,16.25,,,,,,,,,,,,,,,,,,,,,,,,,,,,,,
0.0,0.0030739204958081245,2.624387741088867,-0.8582406044006348,0.002832641825079918,-0.833772599697113,-0.8469551205635071,-0.0009993631392717361,-0.7061399221420288,-0.80960613489151,0.0,2.4690628051757812,-1.410841941833496,-0.5752531439065933,15.5,0.0,2.652883529663086,-1.5320777893066406,-1.5340083837509155,12.75,0.0,2.8209686279296875,-1.62506103515625,-0.3835020959377289,12.25,0.0,2.105712890625,-1.0085105895996094,-0.7670041918754578,18.0,0.0,2.4744272232055664,-0.9881258010864258,-0.5752531439065933,22.75,0.0,2.3839473724365234,-0.6383657455444336,-0.7670041918754578,24.25,0.0,2.44903564453125,-0.6802082061767578,-0.5752531439065933,25.25,0.0,1.6254186630249023,-1.4469623565673828,0.0,23.25,0.0,3.154635429382324,-2.029538154602051,0.0,12.0,0.0,3.1975507736206055,-1.5703439712524414,0.0,16.25,,,,,,,,,,,,,,,,,,,,,,,,,
0.0,0.0027553015388548374,2.493077516555786,-1.0032868385314941,0.0020528146997094154,-0.9888386130332947,-1.0167468786239624,-0.0013767600758001208,-0.808085560798645,-0.8745138645172119,0.0,2.342104911804199,-1.3335943222045898,-0.19175104796886444,21.25,0.0,2.4483203887939453,-1.4247894287109375,-1.72575943171978,15.25,0.0,2.113938331604004,-0.9938478469848633,-1.72575943171978,19.5,0.0,2.1647214889526367,-1.062154769897461,-0.19175104796886444,23.75,0.0,2.261638641357422,-1.1519193649291992,-0.19175104796886444,22.25,0.0,1.6651153564453125,-1.451253890991211,0.0,23.5,0.0,3.2068490982055664,-1.5360116958618164,0.0,15.75,0.0,2.212643623352051,-0.9162425994873047,0.0,21.5,0.0,3.107786178588867,-1.387953758239746,0.0,18.0,,,,,,,,,,,,,,,,,,,,,,,,,,,,,,
0.0,0.0023898035287857056,2.3493869304656982,-1.1056694984436035,0.001254371483810246,-1.1380051374435425,-1.0899561643600464,-0.001747612259350717,-0.8890296816825867,-0.8512082099914551,0.0,2.115011215209961,-1.3564825057983398,0.19175104796886444,25.25,0.0,2.1768808364868164,-1.476287841796875,-2.109261527657509,19.0,0.0,2.091050148010254,-1.0932683944702148,-0.7670041918754578,26.5,0.0,2.051711082458496,-0.8604526519775391,-0.7670041918754578,26.5,0.0,2.004861831665039,-0.731348991394043,-1.5340083837509155,16.25,0.0,1.9190311431884766,-1.1544227600097656,0.0,26.75,,,,,,,,,,,,,,,,,,,,,,,,,,,,,,,,,,,,,,,,,,,,,
0.0,0.0019878114107996225,2.1978111267089844,-1.2318443059921265,0.0004696793621405959,-1.2774991989135742,-1.19979989528656,-0.0020886673592031,-0.9399951696395874,-0.8706464171409607,0.0,1.8936395645141602,-1.1072158813476562,-0.7670041918754578,19.5,0.0,2.0241737365722656,-1.2831687927246094,-0.7670041918754578,20.75,0.0,2.123236656188965,-1.3550519943237305,-0.7670041918754578,20.25,0.0,2.2069215774536133,-1.410841941833496,0.19175104796886444,13.5,0.0,1.7985105514526367,-0.9723901748657227,-0.3835020959377289,15.75,0.0,1.934051513671875,-1.131892204284668,0.0,27.0,0.0,3.0677318572998047,-1.804947853088379,0.0,12.5,0.0,2.9457807540893555,-1.4666318893432617,0.0,18.75,0.0,2.989053726196289,-1.5978813171386719,0.0,16.5,,,,,,,,,,,,,,,,,,,,,,,,,,,,,,
0.0,0.0016500765923410654,2.0498056411743164,-1.3641523122787476,-0.00018545030616223812,-1.3804466724395752,-1.3186049461364746,-0.002337029902264476,-0.9337338805198669,-0.9109201431274414,0.0,1.7380714416503906,-1.3382434844970703,-0.19175104796886444,21.0,0.0,1.9437074661254883,-1.3521909713745117,-0.19175104796886444,21.25,0.0,1.740574836730957,-1.0714530944824219,0.19175104796886444,14.0,0.0,2.157926559448242,-1.260995864868164,-0.19175104796886444,19.0,,,,,,,,,,,,,,,,,,,,,,,,,,,,,,,,,,,,,,,,,,,,,,,,,,,,,,,
0.0,0.0012725921114906669,1.9431688785552979,-1.4162932634353638,-0.0008279874455183744,-1.3983149528503418,-1.2670278549194336,-0.0025606814306229353,-0.8544390797615051,-0.7935196757316589,0.0,1.7162561416625977,-1.2180805206298828,-0.19175104796886444,13.25,0.0,1.8825531005859375,-1.1655092239379883,-0.19175104796886444,20.5,0.0,2.0481348037719727,-1.159071922302246,-0.5752531439065933,20.25,0.0,2.233743667602539,-1.07574462890625,-0.3835020959377289,18.25,0.0,2.3682117462158203,-1.2903213500976562,0.0,15.5,,,,,,,,,,,,,,,,,,,,,,,,,,,,,,,,,,,,,,,,,,,,,,,,,,
0.0,0.0008886125870049,1.8661175966262817,-1.4716262817382812,-0.0014347594697028399,-1.3328081369400024,-1.2522634267807007,-0.0027501790318638086,-0.6788077354431152,-0.746712863445282,0.0,1.7380714416503906,-1.1265277862548828,0.3835020959377289,17.5,0.0,1.8267631530761719,-1.134037971496582,0.19175104796886444,23.0,0.0,2.0728111267089844,-1.0764598846435547,0.19175104796886444,19.5,0.0,2.215147018432617,-1.1254549026489258,0.19175104796886444,18.5,0.0,2.234816551208496,-1.1175870895385742,0.0,24.0,0.0,2.3671388626098633,-1.2384653091430664,0.0,15.75,0.0,2.7562379837036133,-1.4433860778808594,0.0,12.0,0.0,2.90679931640625,-1.4955997467041016,0.0,13.75,,,,,,,,,,,,,,,,,,,,,,,,,,,,,,,,,,,
0.0,1.0415434736898987e-08,3.140293598175049,-0.22436562180519104,9.80599637045998e-08,-0.02739068493247032,0.6326855421066284,1.0102516512233706e-07,-0.175804004073143,0.25912171602249146,0.0,3.1392574310302734,-1.294255256652832,-0.19175104796886444,15.75,0.0,3.1124353408813477,-0.7470846176147461,-0.19175104796886444,19.5,0.0,3.046274185180664,-0.18739700317382812,-0.19175104796886444,24.0,0.0,2.9854774475097656,0.015735626220703125,-0.19175104796886444,23.75,0.0,2.8982162475585938,0.1423358917236328,-0.19175104796886444,18.5,0.0,3.270864486694336,-1.1136531829833984,0.0,24.0,0.0,3.325939178466797,-1.2041330337524414,0.0,19.0,,,,,,,,,,,,,,,,,,,,,,,,,,,,,,,,,,,,,,,,
0.0,1.5545428055929733e-08,3.116426706314087,-0.2352980375289917,1.0182513676681992e-07,-0.09693416208028793,0.534193754196167,9.715186166658896e-08,-0.24547040462493896,0.15591657161712646,0.0,3.3288002014160156,-1.2695789337158203,-0.19175104796886444,16.75,0.0,3.3330917358398438,-1.004934310913086,-0.19175104796886444,19.75,0.0,3.1828880310058594,-0.7828474044799805,-0.19175104796886444,18.25,0.0,3.031611442565918,-0.24068355560302734,-0.3835020959377289,22.0,0.0,2.91287899017334,-0.02574920654296875,-0.3835020959377289,17.25,0.0,2.971529960632324,-0.05543231964111328,-0.3835020959377289,23.25,0.0,3.204345703125,-1.2584924697875977,0.0,22.5,,,,,,,,,,,,,,,,,,,,,,,,,,,,,,,,,,,,,,,,
0.0,1.8709570781538787e-08,3.082216262817383,-0.31840676069259644,1.0234114711238362e-07,-0.2004578560590744,0.32510125637054443,9.149420066023595e-08,-0.36317411065101624,-0.029632851481437683,0.0,3.0977725982666016,-1.1000633239746094,-0.3835020959377289,20.75,0.0,3.2851696014404297,-1.0045766830444336,-0.3835020959377289,19.25,0.0,3.4453868865966797,-0.8786916732788086,-0.19175104796886444,15.75,0.0,3.0248165130615234,-0.6312131881713867,-0.5752531439065933,21.5,0.0,2.931833267211914,-0.09799003601074219,-0.7670041918754578,21.75,0.0,2.848505973815918,0.05042552947998047,-0.7670041918754578,20.25,0.0,3.2401084899902344,-1.1483430862426758,0.0,21.25,,,,,,,,,,,,,,,,,,,,,,,,,,,,,,,,,,,,,,,,
0.0,2.2684059075572804e-08,3.0521886348724365,-0.4034779667854309,1.0342953515873887e-07,-0.25900012254714966,0.1311032474040985,8.659208816652608e-08,-0.39352989196777344,-0.18837229907512665,0.0,3.1914710998535156,-1.244187355041504,-0.3835020959377289,15.5,0.0,3.281235694885254,-1.465916633605957,-0.3835020959377289,12.25,0.0,2.9886960983276367,-0.8414983749389648,-0.3835020959377289,19.25,0.0,3.1557083129882812,-0.7889270782470703,-0.3835020959377289,18.25,0.0,2.9196739196777344,-0.5110502243041992,-0.3835020959377289,19.0,0.0,2.825617790222168,-0.20885467529296875,-0.3835020959377289,16.25,,,,,,,,,,,,,,,,,,,,,,,,,,,,,,,,,,,,,,,,,,,,,
0.0,2.560067713375247e-08,2.9974894523620605,-0.4922233521938324,1.0253275917193605e-07,-0.36493629217147827,-0.05234302580356598,8.071295809486401e-08,-0.48256367444992065,-0.32329803705215454,0.0,2.962946891784668,-1.4927387237548828,-0.5752531439065933,17.5,0.0,2.9647350311279297,-1.1540651321411133,-0.5752531439065933,26.75,0.0,2.9572248458862305,-1.2534856796264648,-0.5752531439065933,25.75,0.0,2.938985824584961,-0.7939338684082031,-0.5752531439065933,18.75,0.0,2.7866363525390625,-0.19991397857666016,-0.5752531439065933,17.0,0.0,2.681851387023926,0.013947486877441406,-0.5752531439065933,13.5,0.0,3.1861066818237305,-1.2717247009277344,0.0,19.25,,,,,,,,,,,,,,,,,,,,,,,,,,,,,,,,,,,,,,,,
0.0,2.7737112162640187e-08,2.9379055500030518,-0.5177409052848816,1.003012073397258e-07,-0.4529452323913574,-0.11542515456676483,7.440921478973905e-08,-0.5291069746017456,-0.34765496850013733,0.0,2.948641777038574,-1.1876821517944336,-0.3835020959377289,13.0,0.0,2.864956855773926,-0.5850791931152344,-0.3835020959377289,24.75,0.0,2.922177314758301,-0.6219148635864258,-0.9587552398443222,21.25,0.0,2.810239791870117,-0.4298686981201172,-0.3835020959377289,22.0,0.0,2.698659896850586,-0.24247169494628906,-0.3835020959377289,16.0,0.0,3.0241012573242188,-0.4019737243652344,0.0,25.75,0.0,2.7347803115844727,-0.08761882781982422,0.0,19.25,0.0,2.830982208251953,-0.18775463104248047,0.0,25.5,0.0,2.9196739196777344,-0.21851062774658203,0.0,27.75,,,,,,,,,,,,,,,,,,,,,,,,,,,,,,
0.0,2.7781997147258153e-08,2.866276741027832,-0.6921780109405518,9.509987108913265e-08,-0.5720019936561584,-0.4151269793510437,6.65770301111479e-08,-0.6182229518890381,-0.5663037300109863,0.0,2.888202667236328,-1.4830827713012695,-0.7670041918754578,19.5,0.0,2.987980842590332,-1.5424489974975586,-0.19175104796886444,15.0,0.0,2.8856992721557617,-1.2159347534179688,-0.7670041918754578,20.5,0.0,2.8166770935058594,-0.8522272109985352,-0.7670041918754578,19.25,0.0,2.657175064086914,-0.7048845291137695,-0.5752531439065933,19.0,0.0,2.582430839538574,-0.5525350570678711,-0.5752531439065933,18.75,0.0,3.1249523162841797,-1.3575553894042969,0.0,18.25,0.0,3.063082695007324,-1.042485237121582,0.0,23.25,0.0,2.921462059020996,-0.26285648345947266,0.0,28.0,,,,,,,,,,,,,,,,,,,,,,,,,,,,,,
0.0,2.762914164122776e-08,2.768831729888916,-0.8168392181396484,8.945023211026637e-08,-0.7111297249794006,-0.603222131729126,5.891168086691323e-08,-0.7107430696487427,-0.6719128489494324,0.0,2.880692481994629,-1.4119148254394531,-0.3835020959377289,12.5,0.0,2.54666805267334,-1.040339469909668,-0.7670041918754578,16.5,0.0,2.744436264038086,-1.0567903518676758,-0.7670041918754578,17.5,0.0,2.826690673828125,-1.2044906616210938,-0.3835020959377289,17.0,0.0,2.4633407592773438,-0.8046627044677734,-0.7670041918754578,17.0,0.0,2.4400949478149414,-0.5450248718261719,-0.7670041918754578,13.5,,,,,,,,,,,,,,,,,,,,,,,,,,,,,,,,,,,,,,,,,,,,,
0.0,2.6755094140185065e-08,2.640803098678589,-0.9188610911369324,8.247016580753552e-08,-0.930665135383606,-0.7076182961463928,5.068181962997187e-08,-0.9208391308784485,-0.6745588779449463,0.0,2.7458667755126953,-1.317143440246582,-1.5340083837509155,14.5,0.0,2.886056900024414,-1.4834403991699219,-0.19175104796886444,14.0,0.0,2.407550811767578,-0.9981393814086914,-0.7670041918754578,22.0,0.0,2.5316476821899414,-1.0753870010375977,-1.5340083837509155,21.75,0.0,2.6324987411499023,-1.1612176895141602,-1.5340083837509155,20.0,0.0,2.3528337478637695,-0.8028745651245117,-0.7670041918754578,18.75,0.0,1.867532730102539,-1.1265277862548828,0.0,15.0,0.0,3.1195878982543945,-1.3210773468017578,0.0,17.0,,,,,,,,,,,,,,,,,,,,,,,,,,,,,,,,,,,
0.0,2.5630985334146317e-08,2.4771676063537598,-1.078168272972107,7.527512480010046e-08,-1.1620092391967773,-0.9083783626556396,4.284107291141481e-08,-1.0883736610412598,-0.772189736366272,0.0,2.241969108581543,-1.250624656677246,-0.9587552398443222,29.5,0.0,2.3038387298583984,-1.3189315795898438,-0.9587552398443222,26.5,0.0,2.417922019958496,-1.4230012893676758,-0.9587552398443222,18.75,0.0,2.545595169067383,-1.6293525695800781,-0.19175104796886444,13.5,0.0,2.122163772583008,-1.042485237121582,-1.342257335782051,19.25,0.0,2.1997690200805664,-1.1619329452514648,-0.9587552398443222,26.25,0.0,1.7795562744140625,-1.3657808303833008,0.0,20.25,0.0,3.077387809753418,-1.3575553894042969,0.0,16.75,,,,,,,,,,,,,,,,,,,,,,,,,,,,,,,,,,,
0.0,2.579150404358188e-08,2.3376450538635254,-1.2332640886306763,7.010520164385525e-08,-1.2672853469848633,-1.123058795928955,3.6937663594471815e-08,-1.0459907054901123,-0.9181528687477112,0.0,2.3174285888671875,-1.522064208984375,0.19175104796886444,13.75,0.0,2.1429061889648438,-1.2091398239135742,0.3835020959377289,26.75,0.0,2.202630043029785,-1.2767314910888672,0.3835020959377289,29.0,0.0,2.244114875793457,-1.335740089416504,0.3835020959377289,23.25,0.0,2.075672149658203,-0.9874105453491211,-1.72575943171978,22.0,0.0,1.8357038497924805,-1.3260841369628906,0.0,22.25,0.0,3.0072927474975586,-1.1955499649047852,0.0,20.75,0.0,2.955794334411621,-0.9680986404418945,0.0,20.0,0.0,2.7008056640625,-0.5536079406738281,0.0,24.25,0.0,2.858877182006836,-0.6040334701538086,0.0,21.5,,,,,,,,,,,,,,,,,,,,,,,,,
0.0,2.4995827629936684e-08,2.1914947032928467,-1.3240386247634888,6.354415660325685e-08,-1.382082462310791,-1.1758129596710205,3.0396311245795005e-08,-1.0485154390335083,-0.8879956603050232,0.0,1.787424087524414,-1.1268854141235352,-0.19175104796886444,12.75,0.0,1.9197463989257812,-1.1594295501708984,-0.5752531439065933,21.0,0.0,2.0760297775268555,-1.2345314025878906,-0.5752531439065933,22.75,0.0,2.1979808807373047,-1.248478889465332,-0.5752531439065933,23.75,0.0,2.2766590118408203,-1.2652873992919922,-0.5752531439065933,17.0,0.0,1.748800277709961,-1.3872385025024414,0.0,24.5,0.0,3.0090808868408203,-1.1919736862182617,0.0,21.25,0.0,2.957940101623535,-0.9734630584716797,0.0,20.25,0.0,2.68399715423584,-0.6040334701538086,0.0,24.25,0.0,2.853512763977051,-0.629425048828125,0.0,21.0,,,,,,,,,,,,,,,,,,,,,,,,,
0.0,2.3590855491306684e-08,2.0420589447021484,-1.421247124671936,5.629365773529571e-08,-1.4908443689346313,-1.2219351530075073,2.3782925850923675e-08,-1.051052451133728,-0.8504698872566223,0.0,1.6497373580932617,-1.3786554336547852,-0.19175104796886444,14.25,0.0,1.7380714416503906,-1.4126300811767578,-0.19175104796886444,23.0,0.0,2.0023584365844727,-1.313924789428711,-0.5752531439065933,23.75,0.0,2.1772384643554688,-1.259922981262207,-0.5752531439065933,24.25,0.0,2.261638641357422,-1.3006925582885742,-1.1505062878131866,18.0,0.0,1.774907112121582,-1.3854503631591797,0.0,24.0,0.0,2.9522180557250977,-1.6340017318725586,0.0,13.5,0.0,2.9582977294921875,-1.270294189453125,0.0,17.75,0.0,2.936124801635742,-0.9130239486694336,0.0,18.25,0.0,2.63214111328125,-0.7399320602416992,0.0,23.25,0.0,2.835988998413086,-0.662684440612793,0.0,19.5,,,,,,,,,,,,,,,,,,,,
0.0,2.3154964168270453e-08,1.9385795593261719,-1.4667041301727295,5.0677414265010157e-08,-1.484162449836731,-1.1781433820724487,1.8691748593369084e-08,-0.9272661805152893,-0.7524110078811646,0.0,1.8314123153686523,-1.0979175567626953,-0.19175104796886444,13.0,0.0,1.9397735595703125,-1.1487007141113281,-0.19175104796886444,22.0,0.0,2.056717872619629,-1.1655092239379883,-0.19175104796886444,23.5,0.0,2.1228790283203125,-1.2137889862060547,-0.5752531439065933,20.5,0.0,1.7795562744140625,-1.381516456604004,0.0,24.75,,,,,,,,,,,,,,,,,,,,,,,,,,,,,,,,,,,,,,,,,,,,,,,,,,
0.0,2.2339646577052008e-08,1.8341089487075806,-1.5416139364242554,4.4859046255396606e-08,-1.454546570777893,-1.2103241682052612,1.3840821821986538e-08,-0.7765179872512817,-0.7515518665313721,0.0,1.7659664154052734,-1.1572837829589844,0.19175104796886444,14.5,0.0,1.8045902252197266,-1.2105703353881836,0.19175104796886444,19.75,0.0,1.9011497497558594,-1.273512840270996,0.19175104796886444,16.75,0.0,1.9973516464233398,-1.384735107421875,0.19175104796886444,12.25,0.0,1.7795562744140625,-1.3464689254760742,0.0,26.0,0.0,2.1271705627441406,-1.16729736328125,0.0,27.25,,,,,,,,,,,,,,,,,,,,,,,,,,,,,,,,,,,,,,,,,,,,,
0.0,2.1132350980224146e-08,1.7990792989730835,-1.5675859451293945,3.885545751813879e-08,-1.2936382293701172,-1.1476249694824219,9.199048633945495e-09,-0.5194532871246338,-0.66739821434021,0.0,1.7806291580200195,-1.2059211730957031,0.19175104796886444,16.25,0.0,1.9201040267944336,-1.1404752731323242,0.19175104796886444,22.25,0.0,2.1293163299560547,-1.1698007583618164,0.19175104796886444,17.5,0.0,2.057790756225586,-1.0914802551269531,0.19175104796886444,21.25,,,,,,,,,,,,,,,,,,,,,,,,,,,,,,,,,,,,,,,,,,,,,,,,,,,,,,,
