tid,posx,posy,posz,velx,vely,velz,accx,accy,accz,pointx1,pointy1,pointz1,doppler1,snr1,pointx2,pointy2,pointz2,doppler2,snr2,pointx3,pointy3,pointz3,doppler3,snr3,pointx4,pointy4,pointz4,doppler4,snr4,pointx5,pointy5,pointz5,doppler5,snr5,pointx6,pointy6,pointz6,doppler6,snr6,pointx7,pointy7,pointz7,doppler7,snr7,pointx8,pointy8,pointz8,doppler8,snr8,pointx9,pointy9,pointz9,doppler9,snr9,pointx10,pointy10,pointz10,doppler10,snr10,pointx11,pointy11,pointz11,doppler11,snr11,pointx12,pointy12,pointz12,doppler12,snr12,pointx13,pointy13,pointz13,doppler13,snr13,pointx14,pointy14,pointz14,doppler14,snr14,pointx15,pointy15,pointz15,doppler15,snr15,pointx16,pointy16,pointz16,doppler16,snr16
0.0,-0.21527937054634094,2.880460262298584,-0.0016188027802854776,-0.12205822765827179,-0.3918536901473999,-0.0977582037448883,-0.0053502339869737625,-0.4110156297683716,-0.021421629935503006,0.0,3.070235252380371,-0.9698867797851562,-0.3835020959377289,18.75,0.0,3.037691116333008,-0.41663646697998047,-0.3835020959377289,20.5,0.0,2.9271841049194336,-0.1659393310546875,-0.5752531439065933,21.75,0.0,2.8324127197265625,-0.0286102294921875,-0.5752531439065933,19.75,0.0,2.7118921279907227,0.16987323760986328,-0.7670041918754578,13.75,0.0,3.1142234802246094,-0.9284019470214844,0.0,22.0,0.0,2.786993980407715,0.03933906555175781,0.0,19.0,0.0,2.8581619262695312,0.054001808166503906,0.0,29.0,,,,,,,,,,,,,,,,,,,,,,,,,,,,,,,,,,,,,,,,
0.0,-0.287480890750885,2.8222854137420654,-0.006133989430963993,-0.2357516884803772,-0.5183870196342468,-0.08856622874736786,-0.08437871187925339,-0.5961777567863464,-0.010935420170426369,0.0,2.962946891784668,-1.0628700256347656,-0.5752531439065933,18.75,0.0,3.2361745834350586,-0.9899139404296875,-0.3835020959377289,14.5,0.0,3.167867660522461,-0.8275508880615234,-0.5752531439065933,18.5,0.0,2.807021141052246,-0.21851062774658203,-0.7670041918754578,18.0,0.0,2.7011632919311523,0.007510185241699219,-0.7670041918754578,22.0,0.0,2.705812454223633,0.054001808166503906,-0.7670041918754578,25.0,0.0,3.0809640884399414,-1.4240741729736328,0.0,16.75,0.0,2.766251564025879,0.02288818359375,0.0,21.25,0.0,2.8384923934936523,0.04863739013671875,0.0,29.75,0.0,2.890348434448242,0.040411949157714844,0.0,30.5,,,,,,,,,,,,,,,,,,,,,,,,,,,,,,
0.0,-0.3461856245994568,2.7561843395233154,-0.008466539904475212,-0.30464792251586914,-0.6385841965675354,-0.07615119218826294,-0.1270209699869156,-0.7219067215919495,0.002296813763678074,0.0,3.043055534362793,-1.439809799194336,-0.3835020959377289,16.75,0.0,2.979755401611328,-1.312851905822754,-0.9587552398443222,18.75,0.0,2.9314756393432617,-0.9759664535522461,-0.7670041918754578,21.25,0.0,2.797365188598633,-0.3612041473388672,-0.7670041918754578,24.5,0.0,2.685427665710449,-0.0883340835571289,-0.5752531439065933,29.5,0.0,2.629995346069336,0.031828880310058594,-0.5752531439065933,29.5,0.0,2.5538206100463867,0.13589859008789062,-0.9587552398443222,23.0,0.0,2.979397773742676,-1.612544059753418,0.0,15.5,0.0,2.9987096786499023,-0.1423358917236328,0.0,24.75,0.0,2.805948257446289,0.036835670471191406,0.0,29.75,0.0,2.8839111328125,0.051856040954589844,0.0,30.5,,,,,,,,,,,,,,,,,,,,,,,,,
0.0,-0.3978152573108673,2.6851022243499756,-0.009738367050886154,-0.3541066646575928,-0.7334526181221008,-0.06318997591733932,-0.15822628140449524,-0.7680066823959351,0.014977410435676575,0.0,2.8531551361083984,-0.9720325469970703,-1.1505062878131866,18.5,0.0,3.0362606048583984,-1.0149478912353516,-1.1505062878131866,14.5,0.0,2.75266170501709,-0.7395744323730469,-0.3835020959377289,25.25,0.0,2.7097463607788086,-0.5865097045898438,-0.5752531439065933,27.0,0.0,2.6389360427856445,-0.18703937530517578,-0.5752531439065933,23.25,0.0,2.360701560974121,0.1323223114013672,-0.7670041918754578,13.25,0.0,2.479434013366699,0.1405477523803711,-0.7670041918754578,19.75,0.0,2.7930736541748047,-0.03254413604736328,0.0,30.5,0.0,2.8706789016723633,-0.06759166717529297,0.0,30.25,,,,,,,,,,,,,,,,,,,,,,,,,,,,,,,,,,,
0.0,-0.5104358792304993,2.5931849479675293,-0.009748169220983982,-0.5184869170188904,-0.8667982220649719,-0.048258550465106964,-0.3053126931190491,-0.8623128533363342,0.02940918132662773,0.0,2.8002262115478516,-1.4759302139282227,-1.342257335782051,15.25,0.0,2.7780532836914062,-1.1494159698486328,-1.5340083837509155,19.5,0.0,2.613186836242676,-0.8271932601928711,0.19175104796886444,27.75,0.0,2.7015209197998047,-0.9827613830566406,-1.5340083837509155,24.0,0.0,2.5205612182617188,-0.4971027374267578,-0.7670041918754578,27.75,0.0,2.430081367492676,-0.2567768096923828,-0.7670041918754578,26.75,0.0,2.3456811904907227,-0.048995018005371094,-0.7670041918754578,22.0,0.0,2.9761791229248047,-0.4334449768066406,0.0,19.75,0.0,2.773404121398926,-0.1938343048095703,0.0,31.0,0.0,2.857089042663574,-0.21386146545410156,0.0,29.0,,,,,,,,,,,,,,,,,,,,,,,,,,,,,,
0.0,-0.6969439387321472,2.434696674346924,-0.008479326032102108,-0.7655785083770752,-1.2025296688079834,-0.028339728713035583,-0.4745005667209625,-1.2687171697616577,0.050518520176410675,0.0,2.559185028076172,-1.568913459777832,-1.72575943171978,19.25,0.0,2.6950836181640625,-1.6429424285888672,-0.19175104796886444,13.75,0.0,2.491593360900879,-1.1394023895263672,-1.5340083837509155,24.75,0.0,2.5398731231689453,-1.3250112533569336,-1.5340083837509155,22.25,0.0,2.12252140045166,-0.8836984634399414,-1.72575943171978,27.0,0.0,2.2770166397094727,-0.7156133651733398,-1.72575943171978,29.75,0.0,2.4007558822631836,-0.8068084716796875,-1.72575943171978,27.0,0.0,2.027750015258789,-0.9723901748657227,0.0,21.5,,,,,,,,,,,,,,,,,,,,,,,,,,,,,,,,,,,,,,,,
0.0,-1.012452483177185,2.3289144039154053,-0.006118774879723787,-1.413284182548523,-1.2381798028945923,-0.015339924022555351,-1.18934166431427,-1.0925236940383911,0.05690599977970123,0.0,2.6006698608398438,-1.4966726303100586,0.9587552398443222,14.5,0.0,2.843499183654785,-1.6046762466430664,0.3835020959377289,13.0,0.0,2.9096603393554688,-1.8192529678344727,0.3835020959377289,12.75,0.0,2.121448516845703,-0.9856224060058594,-0.7670041918754578,28.25,0.0,2.2684335708618164,-1.2073516845703125,0.5752531439065933,25.5,0.0,2.416849136352539,-1.291036605834961,0.5752531439065933,24.0,0.0,2.490520477294922,-1.3203620910644531,0.3835020959377289,20.75,0.0,2.055644989013672,-0.8625984191894531,-1.1505062878131866,29.5,,,,,,,,,,,,,,,,,,,,,,,,,,,,,,,,,,,,,,,,
0.0,-1.1980031728744507,2.199946641921997,-0.004669997375458479,-1.605847954750061,-1.3645497560501099,-0.0035769068636000156,-1.2592556476593018,-1.1245933771133423,0.06307972222566605,0.0,2.1282434463500977,-1.3918876647949219,-0.19175104796886444,20.75,0.0,1.999497413635254,-1.2077093124389648,-0.19175104796886444,23.0,0.0,2.372860908508301,-1.394033432006836,-0.9587552398443222,16.25,0.0,2.521634101867676,-1.4376640319824219,-0.7670041918754578,17.75,0.0,2.6546716690063477,-1.4891624450683594,-0.9587552398443222,16.0,0.0,2.8284788131713867,-1.5674829483032227,-0.3835020959377289,12.75,0.0,1.9201040267944336,-1.02996826171875,-0.19175104796886444,24.5,,,,,,,,,,,,,,,,,,,,,,,,,,,,,,,,,,,,,,,,,,,,,
0.0,-0.3928627073764801,3.109055995941162,0.0011277409503236413,-0.22766998410224915,-0.45430630445480347,0.004392288159579039,-0.4544253349304199,-0.7529551982879639,0.003670946229249239,0.0,3.3205747604370117,-1.2774467468261719,-0.5752531439065933,12.25,0.0,3.2061338424682617,-1.1655092239379883,-0.5752531439065933,17.5,0.0,3.205418586730957,-0.8189678192138672,-0.5752531439065933,19.25,0.0,3.14176082611084,-0.3647804260253906,-0.5752531439065933,16.25,0.0,2.9990673065185547,-0.023245811462402344,-0.5752531439065933,14.0,0.0,3.3327341079711914,-1.6937255859375,0.0,14.0,0.0,3.298044204711914,-0.9763240814208984,0.0,23.75,0.0,3.1778812408447266,-0.24139881134033203,0.0,25.25,,,,,,,,,,,,,,,,,,,,,,,,,,,,,,,,,,,,,,,,
0.0,-0.34170830249786377,3.043613910675049,0.0012568808160722256,-0.14780877530574799,-0.5580794811248779,0.0043934970162808895,-0.3485865294933319,-0.7870469689369202,0.0034642324317246675,0.0,2.973318099975586,-1.4709234237670898,-0.7670041918754578,18.5,0.0,3.171086311340332,-1.3085603713989258,-0.7670041918754578,15.5,0.0,2.7905702590942383,-0.05614757537841797,-0.5752531439065933,15.25,0.0,2.864956855773926,0.036835670471191406,-0.5752531439065933,27.25,0.0,2.8603076934814453,0.020384788513183594,-0.5752531439065933,28.5,0.0,2.9332637786865234,0.036835670471191406,-0.5752531439065933,20.25,0.0,3.3495426177978516,-1.7119646072387695,0.0,13.0,0.0,3.2862424850463867,-1.3986825942993164,0.0,16.0,0.0,3.219723701477051,-1.132965087890625,0.0,21.75,0.0,3.153204917907715,-0.44524669647216797,0.0,25.25,,,,,,,,,,,,,,,,,,,,,,,,,,,,,,
0.0,-0.5067854523658752,2.9728879928588867,0.0013419894967228174,-0.422806978225708,-0.6815785765647888,0.004320165608078241,-0.5450747609138489,-0.8537374138832092,0.0032227321062237024,0.0,2.9865503311157227,-1.1168718338012695,-0.7670041918754578,30.0,0.0,3.0122995376586914,-1.1168718338012695,-0.7670041918754578,29.5,0.0,3.1049251556396484,-1.1286735534667969,-0.7670041918754578,19.75,0.0,2.928614616394043,-0.8336305618286133,-0.7670041918754578,22.0,0.0,2.8241872787475586,-0.22351741790771484,-0.7670041918754578,20.5,0.0,3.0258893966674805,-1.9429922103881836,0.0,13.75,0.0,3.2519102096557617,-1.9472837448120117,0.0,13.25,0.0,3.172159194946289,-1.0524988174438477,0.0,20.75,0.0,3.1156539916992188,-0.7739067077636719,0.0,28.25,,,,,,,,,,,,,,,,,,,,,,,,,,,,,,,,,,,
0.0,-0.5301962494850159,2.871145009994507,0.0012618962209671736,-0.42643144726753235,-0.8612907528877258,0.004036655183881521,-0.4887310564517975,-0.9962950944900513,0.00287144654430449,0.0,3.0541419982910156,-1.7799139022827148,-1.1505062878131866,14.75,0.0,3.0122995376586914,-1.5631914138793945,-1.1505062878131866,19.0,0.0,2.9758214950561523,-1.3017654418945312,-1.1505062878131866,20.75,0.0,2.921462059020996,-1.0213851928710938,-1.1505062878131866,24.25,0.0,2.833127975463867,-0.48065185546875,-0.9587552398443222,24.5,0.0,2.594590187072754,0.06937980651855469,-0.9587552398443222,16.5,0.0,2.6772022247314453,0.005364418029785156,-0.9587552398443222,26.5,0.0,2.7093887329101562,-0.07045269012451172,-0.9587552398443222,28.25,0.0,3.045201301574707,-1.8843412399291992,0.0,15.25,0.0,3.256559371948242,-1.9054412841796875,0.0,13.75,0.0,3.0777454376220703,-1.0099411010742188,0.0,27.0,0.0,3.1528472900390625,-1.1333227157592773,0.0,18.75,,,,,,,,,,,,,,,,,,,,
0.0,-0.6357781887054443,2.7708070278167725,0.0012149116955697536,-0.572688102722168,-0.9892414212226868,0.003797295968979597,-0.5672603249549866,-1.035017967224121,0.0025693634524941444,0.0,2.937197685241699,-1.639723777770996,0.19175104796886444,16.0,0.0,2.8989315032958984,-1.432657241821289,-1.342257335782051,18.75,0.0,2.71761417388916,-1.1050701141357422,-0.9587552398443222,25.5,0.0,2.8449296951293945,-1.1866092681884766,-0.9587552398443222,23.5,0.0,2.657175064086914,-0.29146671295166016,-0.9587552398443222,26.25,0.0,2.547740936279297,-0.23031234741210938,-0.9587552398443222,23.25,0.0,2.5795698165893555,-0.2295970916748047,-0.9587552398443222,28.75,0.0,3.0602216720581055,-1.0961294174194336,0.0,23.5,0.0,3.1474828720092773,-1.12152099609375,0.0,18.25,,,,,,,,,,,,,,,,,,,,,,,,,,,,,,,,,,,
0.0,-0.7096803188323975,2.615424394607544,0.0010932954028248787,-0.6133936643600464,-1.2625279426574707,0.00343999732285738,-0.5180494785308838,-1.293993592262268,0.002200685441493988,0.0,2.932906150817871,-1.662611961364746,-0.3835020959377289,13.0,0.0,2.6897192001342773,-1.3893842697143555,-1.1505062878131866,19.5,0.0,2.833127975463867,-1.489877700805664,-1.72575943171978,17.0,0.0,2.5359392166137695,-1.0753870010375977,-1.5340083837509155,25.0,0.0,2.642512321472168,-1.1876821517944336,-1.1505062878131866,23.75,0.0,2.3610591888427734,-0.3082752227783203,-1.72575943171978,23.5,0.0,2.3975372314453125,-0.3336668014526367,-2.3010125756263733,29.75,0.0,2.454042434692383,-0.3826618194580078,-1.5340083837509155,27.5,0.0,3.1099319458007812,-1.2316703796386719,0.0,18.75,,,,,,,,,,,,,,,,,,,,,,,,,,,,,,,,,,,
0.0,-0.8752443194389343,2.423095226287842,0.0010256117675453424,-0.7920494079589844,-1.5879714488983154,0.0031404546461999416,-0.5833320021629333,-1.5855008363723755,0.0018815584480762482,0.0,2.562403678894043,-1.465916633605957,-2.109261527657509,22.5,0.0,2.605319023132324,-1.5925168991088867,-2.109261527657509,23.0,0.0,2.6907920837402344,-1.6558170318603516,-2.109261527657509,18.25,0.0,2.2859573364257812,-1.166224479675293,-2.109261527657509,22.0,0.0,2.4962425231933594,-1.267075538635254,-2.109261527657509,22.0,0.0,2.0499229431152344,-0.8225440979003906,-1.1505062878131866,27.0,0.0,2.1289587020874023,-0.9037256240844727,-1.1505062878131866,24.0,0.0,2.744436264038086,-0.11336803436279297,0.0,26.5,,,,,,,,,,,,,,,,,,,,,,,,,,,,,,,,,,,,,,,,
0.0,-1.1251871585845947,2.2721354961395264,0.0009329315507784486,-1.1940431594848633,-1.6893353462219238,0.0028473641723394394,-0.9257296919822693,-1.4711357355117798,0.0016046359669417143,0.0,1.842498779296875,-1.0514259338378906,-0.19175104796886444,30.25,0.0,1.9179582595825195,-1.1354684829711914,-0.19175104796886444,22.5,0.0,2.1593570709228516,-1.2813806533813477,-2.3010125756263733,13.5,0.0,2.454042434692383,-1.3861656188964844,-2.109261527657509,12.75,0.0,2.603888511657715,-1.4448165893554688,0.5752531439065933,18.5,0.0,2.834916114807129,-1.5485286712646484,0.19175104796886444,17.25,0.0,2.976536750793457,-1.6143321990966797,0.19175104796886444,15.5,0.0,1.8475055694580078,-0.949859619140625,0.19175104796886444,13.25,0.0,2.7151107788085938,-1.4594793319702148,0.19175104796886444,19.5,0.0,1.960158348083496,-1.0020732879638672,0.0,25.75,0.0,3.09598445892334,-1.2695789337158203,0.0,18.0,,,,,,,,,,,,,,,,,,,,,,,,,
0.0,-1.2967369556427002,2.0679705142974854,0.0010366365313529968,-1.39262056350708,-1.8689301013946533,0.0027757424395531416,-1.0347727537155151,-1.4858169555664062,0.0014647248899564147,0.0,1.7452239990234375,-1.3257265090942383,0.19175104796886444,26.5,0.0,1.7008781433105469,-1.2520551681518555,-0.19175104796886444,13.0,0.0,1.8607378005981445,-1.3071298599243164,0.19175104796886444,22.5,0.0,2.0624399185180664,-1.351475715637207,-2.109261527657509,13.5,0.0,3.0455589294433594,-1.3428926467895508,0.0,17.25,,,,,,,,,,,,,,,,,,,,,,,,,,,,,,,,,,,,,,,,,,,,,,,,,,,,,,,
0.0,-1.4204318523406982,1.8845402002334595,0.0010435632430016994,-1.4898966550827026,-1.9703781604766846,0.0025803898461163044,-1.0558522939682007,-1.4123249053955078,0.001259713200852275,0.0,1.7441511154174805,-1.1469125747680664,-0.19175104796886444,19.75,0.0,1.8267631530761719,-1.188039779663086,-0.19175104796886444,27.5,0.0,1.9201040267944336,-1.247406005859375,-0.19175104796886444,23.75,0.0,1.9773244857788086,-1.4208555221557617,-0.19175104796886444,15.5,0.0,1.6540288925170898,-1.0514259338378906,0.3835020959377289,12.75,0.0,1.896500587463379,-1.0914802551269531,0.0,27.25,0.0,3.039836883544922,-1.3468265533447266,0.0,15.5,,,,,,,,,,,,,,,,,,,,,,,,,,,,,,,,,,,,,,,,,,,,,
0.0,-1.5391416549682617,1.7013661861419678,0.0011119730770587921,-1.5424025058746338,-2.061993360519409,0.002461177995428443,-1.0193675756454468,-1.353545904159546,0.0011111806379631162,0.0,1.7709732055664062,-1.374363899230957,-0.19175104796886444,19.75,0.0,1.696944236755371,-1.2305974960327148,-0.19175104796886444,16.75,0.0,1.7323493957519531,-1.2803077697753906,-0.19175104796886444,25.0,0.0,2.8853416442871094,-1.417994499206543,0.0,17.5,,,,,,,,,,,,,,,,,,,,,,,,,,,,,,,,,,,,,,,,,,,,,,,,,,,,,,,,,,,,
0.0,0.05192970111966133,3.149038076400757,4.297517807572149e-05,0.6300755739212036,-0.477867990732193,0.0002078590332530439,0.024570047855377197,-0.8111534714698792,0.00019192662148270756,0.0,3.268718719482422,-1.5320777893066406,-0.5752531439065933,13.25,0.0,3.219008445739746,-1.2116432189941406,-0.3835020959377289,17.0,0.0,3.509402275085449,-1.3593435287475586,-0.5752531439065933,12.5,0.0,3.175020217895508,-0.5460977554321289,-0.3835020959377289,18.5,0.0,3.0469894409179688,-0.15163421630859375,-0.3835020959377289,22.5,0.0,2.9675960540771484,0.0743865966796875,-0.3835020959377289,23.75,0.0,2.901434898376465,0.171661376953125,-0.3835020959377289,18.75,,,,,,,,,,,,,,,,,,,,,,,,,,,,,,,,,,,,,,,,,,,,,
0.0,0.06272396445274353,3.085777521133423,5.434816921479069e-05,0.5489255785942078,-0.5628705024719238,0.0002157205162802711,-0.043471723794937134,-0.8014545440673828,0.00018552962865214795,0.0,3.0874013900756836,-2.048492431640625,-0.3835020959377289,16.5,0.0,3.1507015228271484,-1.4841556549072266,-0.3835020959377289,22.25,0.0,3.168940544128418,-1.713395118713379,-0.3835020959377289,20.25,0.0,3.099203109741211,-1.157999038696289,-0.3835020959377289,22.0,0.0,2.995133399963379,-0.27430057525634766,-0.3835020959377289,23.75,0.0,2.9010772705078125,-0.04971027374267578,-0.3835020959377289,23.5,0.0,2.9271841049194336,-0.0654458999633789,-0.3835020959377289,27.5,,,,,,,,,,,,,,,,,,,,,,,,,,,,,,,,,,,,,,,,,,,,,
0.0,-0.02500580996274948,3.0357167720794678,6.0101629060227424e-05,0.31731778383255005,-0.6166090369224548,0.00021591351833194494,-0.22842200100421906,-0.7693130373954773,0.0001751236559357494,0.0,3.0280351638793945,-0.7399320602416992,-0.5752531439065933,16.5,0.0,3.1746625900268555,-0.8314847946166992,-0.5752531439065933,16.75,0.0,3.2955408096313477,-0.9684562683105469,-0.7670041918754578,13.75,0.0,2.822399139404297,0.0057220458984375,-0.5752531439065933,17.75,0.0,2.8856992721557617,0.015735626220703125,-0.5752531439065933,17.5,,,,,,,,,,,,,,,,,,,,,,,,,,,,,,,,,,,,,,,,,,,,,,,,,,,,,,,
0.0,-0.09101888537406921,2.9543848037719727,6.383005529642105e-05,0.13804888725280762,-0.7174845933914185,0.00021265668328851461,-0.35633063316345215,-0.7910684943199158,0.0001632756320759654,0.0,3.223299980163574,-1.4777183532714844,-0.7670041918754578,15.25,0.0,2.9761791229248047,-1.3142824172973633,-0.7670041918754578,22.25,0.0,3.1342506408691406,-1.3382434844970703,-0.7670041918754578,18.25,0.0,2.911806106567383,-0.8651018142700195,-0.7670041918754578,23.75,0.0,2.831697463989258,-0.102996826171875,-0.7670041918754578,27.25,0.0,2.863168716430664,-0.2639293670654297,-0.7670041918754578,28.0,0.0,2.765178680419922,-0.020384788513183594,-0.7670041918754578,19.75,,,,,,,,,,,,,,,,,,,,,,,,,,,,,,,,,,,,,,,,,,,,,
0.0,-0.16630235314369202,2.871344566345215,6.619849591515958e-05,-0.039222292602062225,-0.8019357919692993,0.00020712164405267686,-0.47223031520843506,-0.7907247543334961,0.00015081821766216308,0.0,2.9643774032592773,-1.2974739074707031,-0.9587552398443222,17.25,0.0,3.1621456146240234,-1.3089179992675781,-0.9587552398443222,15.5,0.0,3.3180713653564453,-1.2717247009277344,-0.5752531439065933,12.25,0.0,2.877473831176758,-0.8178949356079102,-0.7670041918754578,22.25,0.0,2.802729606628418,-0.34868717193603516,-0.7670041918754578,28.0,0.0,2.734065055847168,-0.1838207244873047,-0.7670041918754578,25.5,0.0,2.761244773864746,-0.18596649169921875,-0.7670041918754578,30.75,0.0,3.309488296508789,-1.7938613891601562,0.0,14.5,0.0,3.2529830932617188,-1.5535354614257812,0.0,16.25,0.0,2.8063058853149414,-0.14913082122802734,0.0,32.25,0.0,2.91287899017334,-0.061511993408203125,0.0,32.75,0.0,3.0176639556884766,-0.05829334259033203,0.0,30.75,,,,,,,,,,,,,,,,,,,,
0.0,-0.19398008286952972,2.7567195892333984,6.640410720137879e-05,-0.12255094945430756,-0.9367061257362366,0.00019824937044177204,-0.5019413232803345,-0.8486454486846924,0.0001370303361909464,0.0,2.8853416442871094,-1.4863014221191406,-1.5340083837509155,20.5,0.0,2.95257568359375,-1.5835762023925781,-1.72575943171978,17.25,0.0,2.8595924377441406,-1.2624263763427734,-1.342257335782051,23.75,0.0,2.7294158935546875,-0.9974241256713867,-1.342257335782051,22.25,0.0,2.639293670654297,-0.0947713851928711,-0.9587552398443222,28.0,0.0,2.5752782821655273,-0.031828880310058594,-0.9587552398443222,23.75,0.0,2.6056766510009766,-0.05543231964111328,-0.9587552398443222,30.25,0.0,3.2966136932373047,-1.8181800842285156,0.0,13.75,0.0,3.229379653930664,-1.589655876159668,0.0,16.5,0.0,2.8960704803466797,-0.08225440979003906,0.0,32.5,,,,,,,,,,,,,,,,,,,,,,,,,,,,,,
0.0,-0.42428916692733765,2.647104501724243,5.814587348140776e-05,-0.5244039297103882,-1.067945122718811,0.00017919280799105763,-0.789648175239563,-0.9182872176170349,0.00011797816841863096,0.0,2.6346445083618164,-1.2170076370239258,-1.342257335782051,26.0,0.0,2.7376413345336914,-1.2928247451782227,-1.342257335782051,21.25,0.0,2.881765365600586,-1.303553581237793,-1.342257335782051,16.0,0.0,2.6088953018188477,-0.7481575012207031,-1.1505062878131866,27.75,0.0,2.3832321166992188,-0.42378902435302734,-1.1505062878131866,12.5,0.0,2.554178237915039,-0.4742145538330078,-1.1505062878131866,28.5,0.0,2.506256103515625,-0.34439563751220703,-1.1505062878131866,24.25,0.0,3.0820369720458984,-1.4040470123291016,0.0,18.25,0.0,3.1718015670776367,-1.6232728958129883,0.0,15.0,0.0,2.8760433197021484,-0.08225440979003906,0.0,30.5,,,,,,,,,,,,,,,,,,,,,,,,,,,,,,
0.0,-0.7116338014602661,2.539626359939575,5.158647763892077e-05,-0.9952113628387451,-1.1526051759719849,0.0001622559066163376,-1.1209832429885864,-0.9092832803726196,0.00010121375089511275,0.0,2.6950836181640625,-1.622915267944336,0.3835020959377289,13.5,0.0,2.5745630264282227,-1.1909008026123047,0.19175104796886444,28.5,0.0,2.6149749755859375,-1.268148422241211,0.19175104796886444,26.25,0.0,2.6378631591796875,-1.3757944107055664,0.19175104796886444,21.5,0.0,2.202272415161133,-0.7163286209106445,-1.9175104796886444,26.0,0.0,2.2426843643188477,-0.6841421127319336,-1.9175104796886444,28.0,0.0,2.4526119232177734,-0.7342100143432617,-2.3010125756263733,23.0,0.0,3.142833709716797,-1.6304254531860352,0.0,15.25,0.0,2.067446708679199,-0.9112358093261719,0.0,18.25,,,,,,,,,,,,,,,,,,,,,,,,,,,,,,,,,,,
0.0,-0.9522393345832825,2.4174206256866455,4.599244857672602e-05,-1.3375160694122314,-1.2698431015014648,0.00014580455899704248,-1.3145954608917236,-0.9525484442710876,8.528470789315179e-05,0.0,2.156496047973633,-1.259922981262207,-1.72575943171978,18.0,0.0,2.675771713256836,-1.5113353729248047,-0.19175104796886444,20.25,0.0,2.5223493576049805,-1.2187957763671875,-1.72575943171978,15.25,0.0,2.6317834854125977,-1.3489723205566406,-0.19175104796886444,19.0,0.0,2.835988998413086,-1.520991325378418,-0.19175104796886444,16.75,0.0,3.006577491760254,-1.6082525253295898,0.19175104796886444,14.25,0.0,2.081751823425293,-0.8711814880371094,-1.1505062878131866,25.5,0.0,2.051711082458496,-0.7528066635131836,-1.1505062878131866,29.5,0.0,2.9894113540649414,-1.588582992553711,0.0,19.0,,,,,,,,,,,,,,,,,,,,,,,,,,,,,,,,,,,
0.0,-1.2030271291732788,2.308354616165161,4.519783396972343e-05,-1.6823861598968506,-1.3260997533798218,0.00013502442743629217,-1.5141469240188599,-0.9083418846130371,7.353367982432246e-05,0.0,1.9551515579223633,-1.2810230255126953,0.5752531439065933,24.0,0.0,2.066373825073242,-1.3425350189208984,-1.342257335782051,17.75,0.0,1.9401311874389648,-1.0750293731689453,-0.3835020959377289,24.25,0.0,2.558112144470215,-1.5381574630737305,-0.9587552398443222,12.5,0.0,2.7801990509033203,-1.5878677368164062,-0.19175104796886444,17.0,0.0,2.8842687606811523,-1.6161203384399414,0.19175104796886444,20.75,0.0,2.921462059020996,-1.6647577285766602,0.19175104796886444,18.5,0.0,2.907872200012207,-1.6694068908691406,0.0,20.25,0.0,3.0001401901245117,-1.8099546432495117,0.0,12.25,0.0,2.9010772705078125,-1.4802217483520508,0.0,23.25,0.0,2.8656721115112305,-1.1930465698242188,0.0,21.5,,,,,,,,,,,,,,,,,,,,,,,,,
0.0,-0.2940870225429535,3.1570708751678467,1.6893369547688053e-06,-0.18357229232788086,-0.4748949408531189,4.146332685195375e-06,-0.5463962554931641,-0.35638925433158875,2.236843329228577e-06,0.0,3.2415390014648438,-1.0807514190673828,-0.5752531439065933,20.25,0.0,3.3245086669921875,-1.1504888534545898,-0.19175104796886444,13.25,0.0,3.210783004760742,-0.8779764175415039,-0.3835020959377289,21.5,0.0,2.878546714782715,0.058650970458984375,-0.3835020959377289,20.0,0.0,2.925753593444824,0.20778179168701172,-0.3835020959377289,23.25,0.0,3.0008554458618164,0.3819465637207031,-0.19175104796886444,20.5,0.0,3.3044815063476562,-1.164078712463379,0.0,22.75,0.0,3.434300422668457,-1.0764598846435547,0.0,19.25,0.0,3.563404083251953,-1.2102127075195312,0.0,15.5,0.0,3.189682960510254,-0.9391307830810547,0.0,20.0,0.0,2.902507781982422,0.03361701965332031,0.0,20.75,0.0,2.955794334411621,0.043272972106933594,0.0,25.0,0.0,3.022313117980957,0.10228157043457031,0.0,23.25,,,,,,,,,,,,,,,
0.0,-0.307338148355484,3.086268663406372,1.5672337667638203e-06,-0.22393228113651276,-0.5610916018486023,3.723901500052307e-06,-0.5327942371368408,-0.42011526226997375,1.8492503386369208e-06,0.0,3.1585693359375,-0.8032321929931641,-0.7670041918754578,25.75,0.0,3.192901611328125,-0.9441375732421875,-0.7670041918754578,19.5,0.0,3.0895471572875977,-0.48601627349853516,-0.7670041918754578,24.5,0.0,2.762317657470703,0.0833272933959961,-0.5752531439065933,13.0,0.0,2.862095832824707,0.14698505401611328,-0.5752531439065933,22.0,0.0,2.935051918029785,0.15807151794433594,-0.5752531439065933,24.75,0.0,3.269791603088379,-1.0929107666015625,0.0,21.75,0.0,3.402829170227051,-1.096487045288086,0.0,17.5,0.0,3.2182931900024414,-0.7714033126831055,0.0,23.25,0.0,2.877473831176758,0.02288818359375,0.0,22.5,0.0,2.945065498352051,0.025033950805664062,0.0,25.75,0.0,3.0537843704223633,0.050067901611328125,0.0,24.0,,,,,,,,,,,,,,,,,,,,
0.0,-0.37651076912879944,3.039557456970215,1.5239370441122446e-06,-0.35178273916244507,-0.5792422294616699,3.403279606573051e-06,-0.5961700081825256,-0.3915349245071411,1.5453198329851148e-06,0.0,3.065943717956543,-1.3403892517089844,-0.5752531439065933,15.75,0.0,3.0655860900878906,-1.0689496994018555,-0.5752531439065933,21.0,0.0,3.059864044189453,-0.4477500915527344,-0.3835020959377289,21.0,0.0,2.972245216369629,0.0858306884765625,-0.3835020959377289,21.0,0.0,2.8781890869140625,0.09655952453613281,-0.3835020959377289,16.0,0.0,3.270864486694336,-1.085042953491211,0.0,21.75,0.0,3.394603729248047,-1.0739564895629883,0.0,17.75,0.0,3.541231155395508,-1.292109489440918,0.0,12.5,0.0,2.7751922607421875,0.003933906555175781,0.0,13.25,0.0,2.8810501098632812,0.036835670471191406,0.0,23.25,0.0,3.040194511413574,0.009298324584960938,0.0,24.25,0.0,2.9364824295043945,0.11086463928222656,0.0,26.75,,,,,,,,,,,,,,,,,,,,
0.0,-0.4688982367515564,2.96073055267334,1.3825075484419358e-06,-0.49683812260627747,-0.6816378235816956,2.958400273200823e-06,-0.6626466512680054,-0.4831677973270416,1.177287231257651e-06,0.0,3.0437707901000977,-1.7638206481933594,-1.342257335782051,12.25,0.0,3.013014793395996,-1.4426708221435547,-1.342257335782051,18.0,0.0,2.971529960632324,-1.2638568878173828,-1.342257335782051,26.0,0.0,2.954721450805664,-1.0145902633666992,-0.5752531439065933,26.5,0.0,2.7544498443603516,-0.15342235565185547,-0.7670041918754578,18.75,0.0,2.832770347595215,-0.06330013275146484,-0.5752531439065933,26.5,0.0,2.891421318054199,-0.04684925079345703,-0.5752531439065933,27.25,0.0,3.178238868713379,-1.2273788452148438,0.0,20.0,0.0,3.2840967178344727,-1.3543367385864258,0.0,15.25,0.0,3.0469894409179688,-0.10263919830322266,0.0,25.0,0.0,2.7666091918945312,-0.060439109802246094,0.0,15.5,0.0,2.866029739379883,0.022172927856445312,0.0,24.5,0.0,2.928614616394043,0.10836124420166016,0.0,27.5,,,,,,,,,,,,,,,
0.0,-0.5864687561988831,2.860969305038452,1.194715309793537e-06,-0.6711204051971436,-0.7896711230278015,2.469967512297444e-06,-0.7511119246482849,-0.5514273047447205,8.042582066991599e-07,0.0,2.947568893432617,-1.3775825500488281,-0.3835020959377289,13.75,0.0,3.014087677001953,-1.6036033630371094,-1.342257335782051,12.0,0.0,2.8356313705444336,-1.2820959091186523,-0.3835020959377289,17.75,0.0,2.764463424682617,-0.6594657897949219,-0.7670041918754578,16.75,0.0,2.571702003479004,-0.2614259719848633,-0.7670041918754578,15.5,0.0,2.624988555908203,-0.31256675720214844,-0.7670041918754578,23.75,0.0,2.645730972290039,-0.34940242767333984,-0.7670041918754578,23.75,0.0,2.8034448623657227,-0.1741647720336914,0.0,25.5,0.0,2.918243408203125,0.08225440979003906,0.0,27.25,,,,,,,,,,,,,,,,,,,,,,,,,,,,,,,,,,,
0.0,-0.730372965335846,2.7340428829193115,1.0261122724841698e-06,-0.8358675241470337,-1.0145988464355469,2.009926674872986e-06,-0.7974549531936646,-0.807924747467041,4.6079227900008846e-07,0.0,2.8585195541381836,-1.7001628875732422,-0.19175104796886444,13.75,0.0,2.704739570617676,-1.2427568435668945,-1.5340083837509155,22.0,0.0,2.7780532836914062,-1.3647079467773438,-1.9175104796886444,21.0,0.0,2.8563737869262695,-1.453399658203125,-1.9175104796886444,18.25,0.0,2.682209014892578,-0.7352828979492188,-1.5340083837509155,20.0,0.0,2.4930238723754883,-0.3554821014404297,-1.1505062878131866,15.0,0.0,2.59244441986084,-0.31113624572753906,-1.1505062878131866,19.5,0.0,2.780914306640625,-0.2714395523071289,0.0,26.25,0.0,3.050565719604492,-0.3472566604614258,0.0,23.75,0.0,2.9071569442749023,-0.07653236389160156,0.0,26.75,,,,,,,,,,,,,,,,,,,,,,,,,,,,,,
0.0,-0.8728075623512268,2.5684762001037598,8.738433052712935e-07,-0.9831397533416748,-1.2509291172027588,1.5921494878057274e-06,-0.8305368423461914,-1.0140818357467651,1.6512962019987754e-07,0.0,1.9183158874511719,-1.1118650436401367,-0.19175104796886444,19.75,0.0,2.469778060913086,-1.4001131057739258,-1.342257335782051,18.0,0.0,2.6432275772094727,-1.5077590942382812,-0.3835020959377289,13.75,0.0,2.848505973815918,-1.5807151794433594,-0.3835020959377289,13.75,0.0,2.461552619934082,-1.1633634567260742,-1.1505062878131866,23.0,0.0,2.4744272232055664,-0.6898641586303711,-2.3010125756263733,24.5,0.0,2.408623695373535,-0.4792213439941406,-2.3010125756263733,23.5,0.0,3.0394792556762695,-1.2209415435791016,0.0,21.0,0.0,2.749800682067871,-0.35190582275390625,0.0,26.0,0.0,3.0519962310791016,-0.457763671875,0.0,21.5,0.0,2.9039382934570312,-0.10156631469726562,0.0,25.0,,,,,,,,,,,,,,,,,,,,,,,,,
0.0,-0.9619172215461731,2.406007766723633,7.614496553287609e-07,-0.9979238510131836,-1.4695885181427002,1.244686473000911e-06,-0.7336816787719727,-1.1947726011276245,-7.026601167581248e-08,0.0,2.2455453872680664,-1.4394521713256836,-2.109261527657509,17.25,0.0,2.162933349609375,-1.2981891632080078,-2.109261527657509,22.5,0.0,2.072453498840332,-0.8683204650878906,-1.342257335782051,23.75,0.0,2.1729469299316406,-0.9047985076904297,-1.342257335782051,23.25,0.0,3.009796142578125,-0.9863376617431641,-1.342257335782051,14.25,0.0,3.1113624572753906,-0.9591579437255859,-1.342257335782051,16.5,0.0,3.0394792556762695,-1.1862516403198242,0.0,20.5,0.0,3.08990478515625,-1.294255256652832,0.0,16.0,0.0,3.039836883544922,-0.5840063095092773,0.0,19.25,,,,,,,,,,,,,,,,,,,,,,,,,,,,,,,,,,,
0.0,-1.112332820892334,2.2219326496124268,7.47046385640715e-07,-1.1575815677642822,-1.6425445079803467,1.0524898925723392e-06,-0.809993326663971,-1.2448312044143677,-1.8882207086790004e-07,0.0,1.9605159759521484,-1.2667179107666016,-0.9587552398443222,21.75,0.0,2.02023983001709,-1.3936758041381836,-0.9587552398443222,17.5,0.0,1.9462108612060547,-1.112222671508789,-0.7670041918754578,21.5,0.0,3.0426979064941406,-1.4015436172485352,0.0,15.5,0.0,3.0333995819091797,-1.1826753616333008,0.0,20.0,0.0,3.02731990814209,-0.7134675979614258,0.0,19.0,0.0,2.8978586196899414,-0.12981891632080078,0.0,22.75,,,,,,,,,,,,,,,,,,,,,,,,,,,,,,,,,,,,,,,,,,,,,
0.0,-0.5682812929153442,3.1007614135742188,0.008493330329656601,-0.6628395318984985,-0.5914106369018555,0.021413788199424744,-0.6800380349159241,-0.7412188053131104,0.014289426617324352,0.0,3.078460693359375,-1.015305519104004,-0.3835020959377289,18.25,0.0,3.162860870361328,-1.0546445846557617,-0.3835020959377289,23.75,0.0,3.2129287719726562,-1.1072158813476562,-0.5752531439065933,20.5,0.0,3.3402442932128906,-1.1347532272338867,-0.5752531439065933,15.5,0.0,2.7816295623779297,0.042557716369628906,-0.5752531439065933,17.0,0.0,2.897500991821289,-0.021457672119140625,-0.5752531439065933,14.5,0.0,3.3620595932006836,-0.857234001159668,0.0,23.75,0.0,3.265857696533203,-0.6251335144042969,0.0,23.0,,,,,,,,,,,,,,,,,,,,,,,,,,,,,,,,,,,,,,,,
0.0,-0.6186890006065369,3.0451865196228027,0.008456723764538765,-0.7077192068099976,-0.6414463520050049,0.020651306957006454,-0.6667711734771729,-0.7046475410461426,0.01329070795327425,0.0,2.954721450805664,-1.6325712203979492,-0.3835020959377289,14.5,0.0,3.1331777572631836,-1.4830827713012695,-0.5752531439065933,16.0,0.0,3.0165910720825195,-0.14913082122802734,-0.3835020959377289,12.25,0.0,2.797365188598633,0.1430511474609375,-0.3835020959377289,17.75,0.0,2.8563737869262695,0.1373291015625,-0.3835020959377289,17.0,0.0,3.4085512161254883,-1.1401176452636719,0.0,18.5,0.0,3.3617019653320312,-0.8375644683837891,0.0,22.75,0.0,3.268003463745117,-0.6079673767089844,0.0,22.75,,,,,,,,,,,,,,,,,,,,,,,,,,,,,,,,,,,,,,,,
0.0,-0.6533771753311157,2.977140426635742,0.007587321102619171,-0.6970009207725525,-0.7384505867958069,0.019024692475795746,-0.5948450565338135,-0.7593855261802673,0.011899829842150211,0.0,3.1070709228515625,-1.2470483779907227,-0.9587552398443222,18.5,0.0,3.1757354736328125,-1.3271570205688477,-0.5752531439065933,17.5,0.0,3.2286643981933594,-1.3875961303710938,-0.5752531439065933,14.0,0.0,2.98154354095459,-1.0961294174194336,-0.9587552398443222,15.5,0.0,2.6847124099731445,0.04756450653076172,-0.5752531439065933,18.0,0.0,2.718687057495117,0.043272972106933594,-0.5752531439065933,20.25,0.0,2.822399139404297,0.044345855712890625,-0.5752531439065933,15.5,0.0,3.3888816833496094,-1.1447668075561523,0.0,18.25,0.0,3.232240676879883,-0.8600950241088867,0.0,21.75,0.0,3.3348798751831055,-0.9244680404663086,0.0,20.25,,,,,,,,,,,,,,,,,,,,,,,,,,,,,,
0.0,-0.6487544178962708,2.8908004760742188,0.007052925880998373,-0.6183543801307678,-0.8453778028488159,0.017692431807518005,-0.4724786877632141,-0.8190107941627502,0.010683366097509861,0.0,2.7837753295898438,-1.5445947647094727,-1.342257335782051,19.25,0.0,3.058791160583496,-1.1544227600097656,-1.342257335782051,18.0,0.0,3.1456947326660156,-1.2627840042114258,-0.9587552398443222,13.5,0.0,2.6732683181762695,-0.08690357208251953,-0.5752531439065933,23.25,0.0,2.8052330017089844,-0.10120868682861328,-0.5752531439065933,16.75,0.0,2.583146095275879,-0.05614757537841797,-0.5752531439065933,15.5,0.0,2.6421546936035156,-0.06580352783203125,-0.5752531439065933,23.5,0.0,3.31878662109375,-0.9934902191162109,0.0,20.0,0.0,2.6772022247314453,0.020384788513183594,0.0,16.25,0.0,2.7959346771240234,0.12767314910888672,0.0,19.75,,,,,,,,,,,,,,,,,,,,,,,,,,,,,,
0.0,-0.8226413726806641,2.7706298828125,0.006513364613056183,-0.8191301822662354,-1.0267736911773682,0.016405530273914337,-0.5776131749153137,-0.9580899477005005,0.00952315703034401,0.0,2.7719736099243164,-1.4230012893676758,-1.1505062878131866,21.75,0.0,2.8957128524780273,-1.498103141784668,-0.5752531439065933,19.0,0.0,3.0426979064941406,-1.4723539352416992,-0.5752531439065933,16.5,0.0,2.6972293853759766,-1.2073516845703125,-1.1505062878131866,20.5,0.0,2.627134323120117,-0.9459257125854492,-1.1505062878131866,18.75,0.0,2.543807029724121,-0.6737709045410156,-0.7670041918754578,15.75,0.0,2.472996711730957,-0.38230419158935547,-0.7670041918754578,13.0,0.0,3.3266544342041016,-1.314997673034668,0.0,19.0,0.0,3.2776594161987305,-1.1050701141357422,0.0,20.5,,,,,,,,,,,,,,,,,,,,,,,,,,,,,,,,,,,
0.0,-0.8600853085517883,2.637035846710205,0.0062299626879394054,-0.7185389995574951,-1.247275710105896,0.015275346115231514,-0.3870575726032257,-1.1834638118743896,0.008432303555309772,0.0,2.637505531311035,-1.2810230255126953,-1.72575943171978,23.5,0.0,2.737283706665039,-1.3564825057983398,-1.72575943171978,19.75,0.0,2.842426300048828,-1.4884471893310547,-1.9175104796886444,15.75,0.0,2.54666805267334,-1.1501312255859375,-1.72575943171978,22.0,0.0,2.4586915969848633,-0.4284381866455078,-0.9587552398443222,20.0,0.0,2.532362937927246,-0.4323720932006836,-0.9587552398443222,21.75,0.0,1.6329288482666016,-1.456618309020996,0.0,13.25,0.0,2.967953681945801,-1.065373420715332,0.0,18.5,0.0,3.109574317932129,-1.1487007141113281,0.0,18.0,0.0,2.91287899017334,-0.2378225326538086,0.0,20.0,0.0,2.7723312377929688,0.10764598846435547,0.0,20.25,,,,,,,,,,,,,,,,,,,,,,,,,
0.0,-0.9894540309906006,2.489102840423584,0.005739525891840458,-0.8441487550735474,-1.4063022136688232,0.014001050963997841,-0.4532698392868042,-1.2302186489105225,0.007376083172857761,0.0,2.665400505065918,-1.4433860778808594,-0.19175104796886444,15.0,0.0,2.8284788131713867,-1.5767812728881836,-0.19175104796886444,13.75,0.0,2.353191375732422,-1.1043548583984375,-1.1505062878131866,22.75,0.0,2.44295597076416,-1.256704330444336,-0.9587552398443222,23.0,0.0,2.5184154510498047,-1.3250112533569336,-1.9175104796886444,19.25,0.0,2.30562686920166,-0.7560253143310547,-1.1505062878131866,23.0,0.0,2.235531806945801,-0.6469488143920898,-1.1505062878131866,17.75,0.0,1.810312271118164,-1.3797283172607422,0.0,18.25,0.0,2.917170524597168,-1.143336296081543,0.0,15.75,0.0,3.0727386474609375,-1.2363195419311523,0.0,18.25,0.0,3.3191442489624023,-1.2624263763427734,0.0,16.5,,,,,,,,,,,,,,,,,,,,,,,,,
0.0,-1.049340009689331,2.30712890625,0.00564095051959157,-0.7700604200363159,-1.6432114839553833,0.013019267469644547,-0.29360973834991455,-1.4190657138824463,0.006438274867832661,0.0,2.3682117462158203,-1.5181303024291992,-1.72575943171978,16.0,0.0,2.2308826446533203,-1.2592077255249023,-2.684514671564102,25.25,0.0,2.2974014282226562,-1.381516456604004,-2.684514671564102,20.75,0.0,1.9980669021606445,-0.9802579879760742,-1.1505062878131866,25.25,0.0,2.1375417709350586,-1.0471343994140625,-1.1505062878131866,24.5,0.0,1.8889904022216797,-1.186966896057129,0.0,25.5,0.0,2.117156982421875,-1.0328292846679688,0.0,24.5,0.0,2.324223518371582,-1.0743141174316406,0.0,22.75,0.0,2.9032230377197266,-1.1669397354125977,0.0,16.0,0.0,3.039836883544922,-1.2892484664916992,0.0,18.25,,,,,,,,,,,,,,,,,,,,,,,,,,,,,,
0.0,-1.174415946006775,2.1140799522399902,0.0057062311097979546,-0.8800646066665649,-1.8235408067703247,0.012302461080253124,-0.360668420791626,-1.4547311067581177,0.005736596882343292,0.0,2.075314521789551,-1.3486146926879883,-0.7670041918754578,23.75,0.0,2.1758079528808594,-1.4448165893554688,-2.8762657195329666,15.0,0.0,1.9165277481079102,-1.1876821517944336,-0.5752531439065933,25.0,0.0,1.9987821578979492,-1.256704330444336,-0.7670041918754578,26.0,0.0,1.9004344940185547,-1.1801719665527344,0.0,24.75,0.0,2.123594284057617,-1.0589361190795898,0.0,24.75,0.0,2.319931983947754,-1.073598861694336,0.0,23.5,0.0,2.979755401611328,-1.409769058227539,0.0,17.25,0.0,2.869248390197754,-1.2041330337524414,0.0,15.25,,,,,,,,,,,,,,,,,,,,,,,,,,,,,,,,,,,
0.0,-1.3127601146697998,1.9026604890823364,0.005630878731608391,-1.0164854526519775,-1.995222806930542,0.011429401114583015,-0.45728957653045654,-1.4649499654769897,0.004992418456822634,0.0,1.731276512145996,-1.3167858123779297,-0.5752531439065933,26.25,0.0,1.7881393432617188,-1.3850927352905273,-0.5752531439065933,22.75,0.0,1.7205476760864258,-1.2488365173339844,-0.5752531439065933,17.75,0.0,2.0034313201904297,-1.3761520385742188,-0.9587552398443222,15.75,0.0,1.8957853317260742,-1.1665821075439453,0.0,25.5,0.0,2.116084098815918,-1.0464191436767578,0.0,24.5,0.0,2.8188228607177734,-1.301407814025879,0.0,15.25,0.0,2.9726028442382812,-1.3986825942993164,0.0,16.75,0.0,2.342820167541504,-1.0271072387695312,0.0,23.25,,,,,,,,,,,,,,,,,,,,,,,,,,,,,,,,,,,
0.0,-0.4804229140281677,3.023033618927002,0.006038947030901909,-0.7581396102905273,-0.7041299939155579,0.010823730379343033,-0.7644716501235962,-0.48147356510162354,0.004037628881633282,0.0,3.170013427734375,-1.0689496994018555,-0.7670041918754578,17.5,0.0,3.078460693359375,-0.8182525634765625,-0.7670041918754578,23.25,0.0,3.118157386779785,-0.9180307388305664,-0.7670041918754578,24.25,0.0,2.969026565551758,-0.4137754440307617,-0.7670041918754578,17.75,0.0,2.800583839416504,-0.12731552124023438,-0.9587552398443222,17.0,0.0,2.7140378952026367,-0.017523765563964844,-0.9587552398443222,12.25,,,,,,,,,,,,,,,,,,,,,,,,,,,,,,,,,,,,,,,,,,,,,,,,,,
0.0,-0.48659437894821167,2.921250343322754,0.005070545244961977,-0.6743606328964233,-0.8755852580070496,0.00908117275685072,-0.6092288494110107,-0.6801463961601257,0.002902010455727577,0.0,3.2122135162353516,-1.1980533599853516,-1.342257335782051,17.0,0.0,3.086686134338379,-1.1386871337890625,-1.1505062878131866,17.75,0.0,3.3338069915771484,-1.224517822265625,-0.7670041918754578,13.5,0.0,2.9965639114379883,-0.7810592651367188,-1.1505062878131866,19.5,0.0,2.849578857421875,-0.39589405059814453,-1.1505062878131866,20.75,0.0,2.7168989181518555,0.01823902130126953,-1.1505062878131866,23.25,0.0,2.5870800018310547,0.0972747802734375,-0.9587552398443222,13.25,0.0,2.6575326919555664,0.10693073272705078,-1.1505062878131866,22.5,,,,,,,,,,,,,,,,,,,,,,,,,,,,,,,,,,,,,,,,
0.0,-0.5745954513549805,2.814901828765869,0.00467096921056509,-0.7578710913658142,-0.9862213134765625,0.007964137010276318,-0.6223112940788269,-0.7406431436538696,0.0021577938459813595,0.0,2.767324447631836,-1.142263412475586,-0.9587552398443222,24.25,0.0,2.8395652770996094,-1.1508464813232422,-0.9587552398443222,24.0,0.0,2.9761791229248047,-1.1036396026611328,-0.7670041918754578,16.75,0.0,2.727627754211426,-0.3819465637207031,-0.9587552398443222,18.75,0.0,2.534151077270508,-0.048995018005371094,-0.9587552398443222,16.75,0.0,2.579927444458008,-0.010728836059570312,-0.9587552398443222,21.25,,,,,,,,,,,,,,,,,,,,,,,,,,,,,,,,,,,,,,,,,,,,,,,,,,
0.0,-0.7527258992195129,2.6881539821624756,0.004227858502417803,-0.9803876280784607,-1.134526252746582,0.006828830111771822,-0.7465842962265015,-0.8425694108009338,0.0014304602518677711,0.0,2.6292800903320312,-1.6139745712280273,-1.5340083837509155,20.0,0.0,2.742648124694824,-1.588582992553711,-0.3835020959377289,17.5,0.0,2.613544464111328,-1.385807991027832,-1.5340083837509155,21.25,0.0,2.662181854248047,-0.7485151290893555,-0.7670041918754578,22.0,0.0,2.5652647018432617,-0.5621910095214844,-0.7670041918754578,19.5,0.0,2.4472475051879883,-0.3662109375,-0.7670041918754578,16.75,0.0,1.7609596252441406,-1.4619827270507812,0.0,17.25,0.0,3.188610076904297,-1.2198686599731445,0.0,19.5,,,,,,,,,,,,,,,,,,,,,,,,,,,,,,,,,,,,,,,,
0.0,-0.898504912853241,2.5277364253997803,0.0036174156703054905,-1.0864344835281372,-1.3564612865447998,0.005514850374311209,-0.7372906804084778,-1.046566367149353,0.0006197463953867555,0.0,2.0406246185302734,-1.0135173797607422,-0.9587552398443222,17.75,0.0,2.688288688659668,-1.4219284057617188,-1.1505062878131866,18.25,0.0,2.8477907180786133,-1.484513282775879,-0.19175104796886444,16.0,0.0,2.4504661560058594,-0.9680986404418945,-1.72575943171978,26.25,0.0,2.513408660888672,-1.0818243026733398,-1.72575943171978,26.75,0.0,2.5995969772338867,-1.152634620666504,-1.72575943171978,20.75,0.0,2.34067440032959,-0.8279085159301758,-0.9587552398443222,22.75,0.0,2.258419990539551,-0.8980035781860352,0.0,21.0,0.0,3.0080080032348633,-1.2488365173339844,0.0,19.25,0.0,3.1403303146362305,-1.2695789337158203,0.0,17.5,0.0,3.3370256423950195,-1.1461973190307617,0.0,13.0,0.0,3.0448436737060547,-0.354766845703125,0.0,20.5,,,,,,,,,,,,,,,,,,,,
0.0,-0.9714275598526001,2.353576183319092,0.0034583539236336946,-1.041933536529541,-1.5605671405792236,0.004734253045171499,-0.5977467894554138,-1.2003453969955444,0.00013722252333536744,0.0,2.262711524963379,-1.109004020690918,-1.342257335782051,23.0,0.0,2.3331642150878906,-1.2581348419189453,-2.684514671564102,17.75,0.0,2.0978450775146484,-0.9226799011230469,-1.72575943171978,20.5,0.0,2.2144317626953125,-0.9423494338989258,-1.342257335782051,23.5,0.0,1.7995834350585938,-1.3360977172851562,0.0,23.0,0.0,2.2455453872680664,-0.8933544158935547,0.0,23.5,0.0,2.866387367248535,-1.2409687042236328,0.0,18.75,0.0,3.0874013900756836,-1.3943910598754883,0.0,17.0,0.0,3.3420324325561523,-1.1712312698364258,0.0,12.75,,,,,,,,,,,,,,,,,,,,,,,,,,,,,,,,,,,
0.0,-1.1345596313476562,2.148313522338867,0.0030371404718607664,-1.192471981048584,-1.7632414102554321,0.003696936648339033,-0.6661540865898132,-1.291311502456665,-0.0004495394532568753,0.0,1.7462968826293945,-1.189112663269043,-1.342257335782051,15.5,0.0,1.8285512924194336,-1.2316703796386719,-1.342257335782051,25.25,0.0,1.9866228103637695,-1.2305974960327148,-1.342257335782051,24.0,0.0,2.1822452545166016,-1.2148618698120117,-0.19175104796886444,21.25,0.0,2.2791624069213867,-1.3396739959716797,-1.1505062878131866,14.0,0.0,1.7244815826416016,-1.427292823791504,0.0,24.75,0.0,2.1429061889648438,-1.0821819305419922,0.0,24.75,0.0,2.871394157409668,-1.221299171447754,0.0,19.5,,,,,,,,,,,,,,,,,,,,,,,,,,,,,,,,,,,,,,,,
0.0,-1.2845991849899292,1.965751051902771,0.002470840932801366,-1.3430993556976318,-1.8655493259429932,0.002563072368502617,-0.767320990562439,-1.2345447540283203,-0.0010406844085082412,0.0,1.8453598022460938,-1.2091398239135742,-0.5752531439065933,22.25,0.0,1.9222497940063477,-1.3997554779052734,-1.1505062878131866,24.0,0.0,2.029895782470703,-1.4351606369018555,0.19175104796886444,19.5,0.0,2.191901206970215,-1.461625099182129,0.3835020959377289,12.75,0.0,1.7595291137695312,-0.8243322372436523,-1.5340083837509155,12.5,0.0,1.8002986907958984,-0.8980035781860352,-0.3835020959377289,16.25,0.0,2.8553009033203125,-1.2459754943847656,0.0,20.0,,,,,,,,,,,,,,,,,,,,,,,,,,,,,,,,,,,,,,,,,,,,,
0.0,-1.3929487466812134,1.7906880378723145,0.0021668081171810627,-1.373001217842102,-1.949874758720398,0.0017976675881072879,-0.7322936058044434,-1.1908751726150513,-0.0014039396774023771,0.0,1.6922950744628906,-1.1926889419555664,-0.5752531439065933,18.5,0.0,1.728057861328125,-1.2788772583007812,-0.5752531439065933,24.5,0.0,1.8575191497802734,-1.3303756713867188,-0.7670041918754578,20.0,0.0,2.1135807037353516,-1.301407814025879,-0.7670041918754578,14.0,0.0,2.8055906295776367,-1.3554096221923828,0.0,19.25,,,,,,,,,,,,,,,,,,,,,,,,,,,,,,,,,,,,,,,,,,,,,,,,,,,,,,,
0.0,-0.4325827658176422,3.0771963596343994,1.5180155969574116e-05,-0.16300064325332642,-0.16843441128730774,4.686844476964325e-05,-0.006147148087620735,-0.059800997376441956,3.176490281475708e-05,0.0,3.2933950424194336,-0.9838342666625977,-0.3835020959377289,21.0,0.0,3.4003257751464844,-1.0471343994140625,-0.3835020959377289,16.5,0.0,3.224015235900879,-0.754237174987793,-0.3835020959377289,22.5,0.0,3.142118453979492,-0.3923177719116211,-0.3835020959377289,20.5,0.0,2.8409957885742188,0.14519691467285156,-0.3835020959377289,17.5,0.0,2.9418468475341797,0.17559528350830078,-0.3835020959377289,17.75,0.0,3.2072067260742188,-0.4266500473022461,0.0,22.25,0.0,2.976536750793457,0.08440017700195312,0.0,26.75,0.0,3.053426742553711,-0.02181529998779297,0.0,26.25,0.0,2.90679931640625,0.15270709991455078,0.0,21.5,,,,,,,,,,,,,,,,,,,,,,,,,,,,,,
0.0,-0.49825870990753174,3.053394079208374,1.4882469258736819e-05,-0.239360511302948,-0.2178962677717209,4.396732401801273e-05,-0.06295086443424225,-0.13068853318691254,2.823433533194475e-05,0.0,3.130674362182617,-0.9866952896118164,-0.3835020959377289,21.75,0.0,3.2165050506591797,-1.1036396026611328,-0.3835020959377289,18.75,0.0,3.391742706298828,-1.0389089584350586,-0.3835020959377289,13.5,0.0,3.0405521392822266,-0.8003711700439453,-0.3835020959377289,21.0,0.0,2.8313398361206055,0.07867813110351562,-0.3835020959377289,18.25,0.0,2.9250383377075195,-0.046133995056152344,-0.3835020959377289,19.0,0.0,3.1796693801879883,-0.722050666809082,0.0,22.5,0.0,3.043055534362793,-0.1087188720703125,0.0,25.75,0.0,2.955794334411621,0.03325939178466797,0.0,27.75,0.0,2.894282341003418,0.10693073272705078,0.0,23.25,,,,,,,,,,,,,,,,,,,,,,,,,,,,,,
0.0,-0.49527621269226074,3.0020124912261963,1.4489708519249689e-05,-0.1909199357032776,-0.3147927522659302,4.0883285691961646e-05,-0.007559530436992645,-0.2492765635251999,2.4754306650720537e-05,0.0,3.1238794326782227,-1.271367073059082,-0.5752531439065933,19.0,0.0,3.106355667114258,-0.9756088256835938,-0.5752531439065933,22.25,0.0,3.00443172454834,-0.5146265029907227,-0.5752531439065933,23.5,0.0,2.7691125869750977,-0.10192394256591797,-0.5752531439065933,17.5,0.0,2.888917922973633,-0.14913082122802734,-0.5752531439065933,27.0,0.0,2.840280532836914,-0.07224082946777344,-0.5752531439065933,26.25,0.0,3.0269622802734375,-0.3300905227661133,0.0,27.0,,,,,,,,,,,,,,,,,,,,,,,,,,,,,,,,,,,,,,,,,,,,,
0.0,-0.5484113693237305,2.939087390899658,1.3974783541925717e-05,-0.24061539769172668,-0.4270517826080322,3.765539076994173e-05,-0.039692141115665436,-0.3704075217247009,2.13674757105764e-05,0.0,3.0602216720581055,-1.5259981155395508,-0.7670041918754578,15.5,0.0,3.0258893966674805,-1.2552738189697266,-0.7670041918754578,18.5,0.0,2.918243408203125,-0.9537935256958008,-0.7670041918754578,19.5,0.0,2.8238296508789062,-0.548243522644043,-0.5752531439065933,22.0,0.0,2.766251564025879,-0.12624263763427734,-0.5752531439065933,23.25,0.0,2.7129650115966797,0.011444091796875,-0.5752531439065933,18.75,,,,,,,,,,,,,,,,,,,,,,,,,,,,,,,,,,,,,,,,,,,,,,,,,,
0.0,-0.6061205863952637,2.846764326095581,1.3280261555337347e-05,-0.2897499203681946,-0.5858023762702942,3.420392022235319e-05,-0.06510505080223083,-0.5319259166717529,1.800419886421878e-05,0.0,2.7791261672973633,-0.9158849716186523,-0.9587552398443222,25.0,0.0,2.8542280197143555,-1.0274648666381836,-0.9587552398443222,24.25,0.0,2.9561519622802734,-1.1000633239746094,-0.9587552398443222,15.5,0.0,2.6983022689819336,-0.6916522979736328,-0.7670041918754578,24.25,0.0,2.64894962310791,-0.3522634506225586,-0.7670041918754578,21.75,0.0,2.5742053985595703,-0.0514984130859375,-0.7670041918754578,13.25,0.0,3.223299980163574,-1.518845558166504,0.0,18.25,,,,,,,,,,,,,,,,,,,,,,,,,,,,,,,,,,,,,,,,,,,,,
0.0,-0.6770924925804138,2.7543766498565674,1.1921276382054202e-05,-0.35164737701416016,-0.7442418932914734,2.9998624086147174e-05,-0.09571251273155212,-0.6866195201873779,1.436290858691791e-05,0.0,2.7043819427490234,-1.0961294174194336,-1.342257335782051,26.0,0.0,2.8263330459594727,-1.1240243911743164,-1.342257335782051,23.5,0.0,3.141045570373535,-1.186966896057129,-1.342257335782051,12.25,0.0,2.6443004608154297,-0.857234001159668,-0.19175104796886444,24.75,0.0,3.004789352416992,-1.078963279724121,-1.342257335782051,16.75,0.0,2.5867223739624023,-0.35583972930908203,-0.7670041918754578,23.5,0.0,2.525925636291504,-0.12624263763427734,-0.7670041918754578,19.25,0.0,3.246188163757324,-1.4312267303466797,0.0,17.0,,,,,,,,,,,,,,,,,,,,,,,,,,,,,,,,,,,,,,,,
0.0,-0.7839304208755493,2.6353228092193604,9.904324542731047e-06,-0.46166351437568665,-0.9471085071563721,2.5065430236281827e-05,-0.15844888985157013,-0.8808434009552002,1.0452421520312782e-05,0.0,2.9751062393188477,-1.7055273056030273,-0.19175104796886444,12.25,0.0,2.47800350189209,-1.2946128845214844,-1.1505062878131866,24.5,0.0,2.5523900985717773,-1.3457536697387695,-1.1505062878131866,21.5,0.0,2.6693344116210938,-1.3997554779052734,-1.342257335782051,19.25,0.0,2.852797508239746,-1.4405250549316406,-0.3835020959377289,15.25,0.0,3.28981876373291,-1.5295743942260742,-0.9587552398443222,12.5,0.0,2.321004867553711,-0.40841102600097656,-1.342257335782051,22.25,0.0,2.3735761642456055,-0.2886056900024414,-1.342257335782051,27.25,0.0,2.4611949920654297,-0.34940242767333984,-1.342257335782051,23.25,,,,,,,,,,,,,,,,,,,,,,,,,,,,,,,,,,,
0.0,-0.9008983373641968,2.4714763164520264,9.414652595296502e-06,-0.5654183030128479,-1.2205945253372192,2.2148526113596745e-05,-0.19854632019996643,-1.1407182216644287,7.933755114208907e-06,0.0,2.3124217987060547,-1.260995864868164,-1.5340083837509155,24.25,0.0,2.4150609970092773,-1.3346672058105469,-2.109261527657509,25.75,0.0,2.604961395263672,-1.4340877532958984,-2.109261527657509,14.75,0.0,2.50089168548584,-1.3393163681030273,-2.109261527657509,21.5,0.0,2.248406410217285,-0.9891986846923828,-0.9587552398443222,21.5,0.0,2.1697282791137695,-0.7803440093994141,-0.9587552398443222,17.25,,,,,,,,,,,,,,,,,,,,,,,,,,,,,,,,,,,,,,,,,,,,,,,,,,
0.0,-0.9638420343399048,2.2911813259124756,9.007505468616728e-06,-0.5690626502037048,-1.460357666015625,1.9453795175650157e-05,-0.1575271487236023,-1.3077865839004517,5.713747668778524e-06,0.0,2.2019147872924805,-1.2288093566894531,-0.7670041918754578,25.5,0.0,2.2705793380737305,-1.341104507446289,-0.7670041918754578,17.5,0.0,1.8832683563232422,-0.9659528732299805,-2.3010125756263733,17.25,0.0,2.0166635513305664,-0.8640289306640625,-2.3010125756263733,27.75,0.0,2.1497011184692383,-0.9334087371826172,-1.9175104796886444,25.75,,,,,,,,,,,,,,,,,,,,,,,,,,,,,,,,,,,,,,,,,,,,,,,,,,,,,,,
0.0,-1.1377601623535156,2.125222682952881,8.845472621032968e-06,-0.818649411201477,-1.5935720205307007,1.728666029521264e-05,-0.385897159576416,-1.275883436203003,4.034976882394403e-06,0.0,1.8568038940429688,-1.2187957763671875,-0.19175104796886444,19.25,0.0,1.9919872283935547,-1.340031623840332,-0.9587552398443222,21.25,0.0,2.124667167663574,-1.3661384582519531,0.19175104796886444,20.0,0.0,2.1750926971435547,-1.532435417175293,-1.342257335782051,14.25,0.0,3.026247024536133,-1.0918378829956055,0.0,18.0,,,,,,,,,,,,,,,,,,,,,,,,,,,,,,,,,,,,,,,,,,,,,,,,,,,,,,,
0.0,-1.2594314813613892,1.9581876993179321,8.345427886524703e-06,-0.9515629410743713,-1.7003358602523804,1.4787086911383085e-05,-0.4928821921348572,-1.2266756296157837,2.2464446374215186e-06,0.0,1.8156766891479492,-1.2044906616210938,-0.5752531439065933,23.75,0.0,1.9140243530273438,-1.328587532043457,-0.5752531439065933,22.75,0.0,2.045273780822754,-1.3600587844848633,-0.3835020959377289,17.5,0.0,1.8013715744018555,-0.9613037109375,-0.5752531439065933,16.5,0.0,1.8804073333740234,-1.1533498764038086,0.0,24.5,0.0,2.7930736541748047,-1.1801719665527344,0.0,18.5,0.0,2.9532909393310547,-1.2595653533935547,0.0,15.0,,,,,,,,,,,,,,,,,,,,,,,,,,,,,,,,,,,,,,,,,,,,,
0.0,-1.3097010850906372,1.81916081905365,7.537150850112084e-06,-0.9146388173103333,-1.7565149068832397,1.2017271728836931e-05,-0.4176219701766968,-1.1629054546356201,3.797691761064925e-07,0.0,1.6275644302368164,-1.2549161911010742,-0.7670041918754578,15.25,0.0,1.8635988235473633,-1.2316703796386719,-0.9587552398443222,22.5,0.0,2.061009407043457,-1.1855363845825195,-0.9587552398443222,24.75,0.0,2.1489858627319336,-1.1823177337646484,-0.9587552398443222,20.0,0.0,1.9104480743408203,-1.089334487915039,0.0,24.75,0.0,2.889275550842285,-1.3664960861206055,0.0,12.75,,,,,,,,,,,,,,,,,,,,,,,,,,,,,,,,,,,,,,,,,,,,,,,,,,
0.0,-1.3005906343460083,1.7694201469421387,6.6745924414135516e-06,-0.7795228958129883,-1.6338539123535156,9.407523975824006e-06,-0.27407917380332947,-0.9262162446975708,-1.2404818789946148e-06,0.0,2.0291805267333984,-1.087188720703125,-0.5752531439065933,23.25,0.0,2.1343231201171875,-1.0761022567749023,-0.9587552398443222,26.25,0.0,2.235889434814453,-1.0589361190795898,-0.9587552398443222,21.75,0.0,2.4633407592773438,-0.8929967880249023,-0.9587552398443222,15.0,0.0,1.7552375793457031,-1.2770891189575195,0.0,26.75,0.0,2.866387367248535,-1.4262199401855469,0.0,13.25,,,,,,,,,,,,,,,,,,,,,,,,,,,,,,,,,,,,,,,,,,,,,,,,,,
0.0,-0.10085228830575943,2.73164701461792,-2.598535830955484e-09,-0.0012880712747573853,-0.4005393385887146,-8.71862226858866e-09,-0.1174505352973938,-0.33868497610092163,-6.1383729210717775e-09,0.0,2.917170524597168,-1.3589859008789062,-0.5752531439065933,18.75,0.0,3.0001401901245117,-1.4963150024414062,-0.5752531439065933,13.5,0.0,2.9175281524658203,-1.0764598846435547,-0.7670041918754578,20.5,0.0,2.8835535049438477,-0.7299184799194336,-0.7670041918754578,20.0,0.0,2.533435821533203,0.058650970458984375,-0.7670041918754578,22.75,0.0,2.54058837890625,0.1201629638671875,-0.7670041918754578,26.5,0.0,2.611398696899414,0.2532005310058594,-0.5752531439065933,20.75,0.0,3.046274185180664,-1.1082887649536133,0.0,19.5,0.0,3.204345703125,-1.16729736328125,0.0,18.0,0.0,3.3502578735351562,-1.212000846862793,0.0,15.0,0.0,2.8935670852661133,-0.5768537521362305,0.0,24.25,0.0,2.7261972427368164,0.08475780487060547,0.0,24.25,,,,,,,,,,,,,,,,,,,,
0.0,-0.06427702307701111,2.6540093421936035,-2.552286826329464e-09,0.04875235632061958,-0.5156831741333008,-8.134152018612895e-09,-0.06565208733081818,-0.44055718183517456,-5.384173107358947e-09,0.0,2.8384923934936523,-1.3217926025390625,-0.7670041918754578,17.0,0.0,2.934694290161133,-1.363992691040039,-0.7670041918754578,16.0,0.0,3.5473108291625977,-1.5410184860229492,-0.5752531439065933,12.75,0.0,2.8209686279296875,-0.8493661880493164,-0.7670041918754578,16.75,0.0,2.642512321472168,0.04863739013671875,-0.5752531439065933,16.75,0.0,2.401113510131836,0.13124942779541016,-0.7670041918754578,14.25,0.0,2.4586915969848633,0.19347667694091797,-0.7670041918754578,23.0,0.0,2.4830102920532227,0.2435445785522461,-0.7670041918754578,23.0,0.0,3.0126571655273438,-1.1751651763916016,0.0,20.75,0.0,3.1685829162597656,-1.209855079650879,0.0,17.75,,,,,,,,,,,,,,,,,,,,,,,,,,,,,,
0.0,-0.037114500999450684,2.570600986480713,-2.7695972182328887e-09,0.0789426639676094,-0.6139615178108215,-7.880347041577807e-09,-0.03535076230764389,-0.5002830028533936,-4.883392357157845e-09,0.0,2.6503801345825195,-1.3310909271240234,-0.7670041918754578,20.25,0.0,2.7304887771606445,-1.422286033630371,0.19175104796886444,18.0,0.0,2.8449296951293945,-1.4373064041137695,0.19175104796886444,16.25,0.0,2.6035308837890625,-1.0868310928344727,-0.7670041918754578,18.25,0.0,2.359628677368164,0.0025033950805664062,-0.7670041918754578,18.75,0.0,2.3932456970214844,0.03254413604736328,-0.7670041918754578,23.75,0.0,2.45511531829834,0.09369850158691406,-0.7670041918754578,20.5,0.0,2.971172332763672,-1.289963722229004,0.0,19.75,0.0,3.0966997146606445,-1.3675689697265625,0.0,18.0,,,,,,,,,,,,,,,,,,,,,,,,,,,,,,,,,,,
0.0,-0.18307554721832275,2.4958038330078125,-2.897686979252967e-09,-0.18037348985671997,-0.6912253499031067,-7.494596054868907e-09,-0.24648016691207886,-0.5353960394859314,-4.3292569529285174e-09,0.0,2.5566816329956055,-1.2284517288208008,-1.1505062878131866,21.0,0.0,2.4847984313964844,-0.9931325912475586,-1.1505062878131866,24.75,0.0,2.506256103515625,-1.1293888092041016,-1.1505062878131866,26.5,0.0,2.714395523071289,-1.2041330337524414,-1.1505062878131866,16.0,0.0,2.387523651123047,-0.6144046783447266,-0.5752531439065933,17.5,0.0,2.230525016784668,-0.2968311309814453,-0.5752531439065933,17.75,0.0,1.661539077758789,-1.3278722763061523,0.0,20.75,0.0,2.876758575439453,-2.1178722381591797,0.0,12.0,0.0,3.046274185180664,-1.4301538467407227,0.0,16.25,0.0,2.9926300048828125,-1.1833906173706055,0.0,19.75,,,,,,,,,,,,,,,,,,,,,,,,,,,,,,
0.0,-0.28331872820854187,2.4124600887298584,-3.150585792255356e-09,-0.3387213349342346,-0.7643905878067017,-7.267448420833489e-09,-0.35575854778289795,-0.5551248788833618,-3.912979273934525e-09,0.0,2.2230148315429688,-1.4111995697021484,-1.342257335782051,23.75,0.0,2.3163557052612305,-1.431584358215332,-1.342257335782051,22.5,0.0,2.429366111755371,-1.4963150024414062,-1.342257335782051,17.75,0.0,2.67791748046875,-1.479506492614746,-1.342257335782051,16.0,0.0,2.8095245361328125,-1.5735626220703125,-0.19175104796886444,14.5,0.0,2.3206472396850586,-0.7349252700805664,-0.7670041918754578,20.25,0.0,2.2226572036743164,-0.5103349685668945,-0.7670041918754578,17.5,0.0,2.977609634399414,-1.5406608581542969,0.0,15.5,,,,,,,,,,,,,,,,,,,,,,,,,,,,,,,,,,,,,,,,
0.0,-0.6548957824707031,2.2744030952453613,-2.5972342054814135e-09,-0.8946319222450256,-1.035965919494629,-5.953949333559194e-09,-0.7539636492729187,-0.874702513217926,-2.810673471742575e-09,0.0,1.9952058792114258,-1.0803937911987305,-0.7670041918754578,23.5,0.0,2.4279356002807617,-1.430511474609375,-2.8762657195329666,19.0,0.0,2.541661262512207,-1.6014575958251953,-2.8762657195329666,14.25,0.0,2.1622180938720703,-1.1376142501831055,-1.9175104796886444,26.0,0.0,2.276301383972168,-1.2066364288330078,-2.3010125756263733,28.0,0.0,2.359628677368164,-1.2685060501098633,-2.3010125756263733,23.75,0.0,1.6622543334960938,-1.4237165451049805,0.0,24.0,,,,,,,,,,,,,,,,,,,,,,,,,,,,,,,,,,,,,,,,,,,,,
0.0,-0.8584074974060059,2.0957283973693848,-2.2192567783463346e-09,-1.0956741571426392,-1.3322826623916626,-4.941643982903088e-09,-0.8105273246765137,-1.1622579097747803,-1.976089070154785e-09,0.0,1.7445087432861328,-1.0578632354736328,-1.342257335782051,17.25,0.0,1.8492937088012695,-1.1315345764160156,-1.342257335782051,23.5,0.0,2.0488500595092773,-1.2499094009399414,-2.109261527657509,23.5,0.0,2.1800994873046875,-1.3146400451660156,-2.109261527657509,23.75,0.0,2.2219419479370117,-1.415848731994629,-2.109261527657509,18.25,,,,,,,,,,,,,,,,,,,,,,,,,,,,,,,,,,,,,,,,,,,,,,,,,,,,,,,
0.0,-1.0388435125350952,1.957414150238037,-1.8981232141612736e-09,-1.2890375852584839,-1.4499467611312866,-4.08679312613458e-09,-0.9047428369522095,-1.1640934944152832,-1.3137921861527957e-09,0.0,2.1539926528930664,-1.4580488204956055,0.19175104796886444,13.75,0.0,1.7445087432861328,-0.9891986846923828,-0.19175104796886444,17.25,0.0,2.0728111267089844,-1.1633634567260742,-1.5340083837509155,24.75,0.0,2.0896196365356445,-1.3064146041870117,0.19175104796886444,19.25,0.0,1.6704797744750977,-0.8940696716308594,-0.19175104796886444,15.5,0.0,1.9640922546386719,-1.0432004928588867,-1.5340083837509155,22.75,,,,,,,,,,,,,,,,,,,,,,,,,,,,,,,,,,,,,,,,,,,,,,,,,,
0.0,-1.220549464225769,1.7932589054107666,-1.74182313017468e-09,-1.4754974842071533,-1.5811046361923218,-3.4826550532329748e-09,-0.9971774220466614,-1.168440341949463,-8.47864833897205e-10,0.0,1.6797780990600586,-1.3239383697509766,-0.3835020959377289,25.75,0.0,1.8124580383300781,-1.3693571090698242,-0.7670041918754578,19.75,0.0,1.6143321990966797,-1.0807514190673828,0.19175104796886444,14.5,0.0,1.64794921875,-1.2170076370239258,0.19175104796886444,19.25,0.0,2.06601619720459,-1.3464689254760742,-0.7670041918754578,12.5,,,,,,,,,,,,,,,,,,,,,,,,,,,,,,,,,,,,,,,,,,,,,,,,,,,,,,,
0.0,-1.2960530519485474,1.7626774311065674,-1.5348508020096574e-09,-1.4203650951385498,-1.477479338645935,-2.836024526331471e-09,-0.8508698344230652,-0.9664083123207092,-3.775675883055385e-10,0.0,1.6704797744750977,-1.2123584747314453,-0.5752531439065933,16.5,0.0,1.8929243087768555,-1.1998414993286133,-0.7670041918754578,26.5,0.0,2.0864009857177734,-1.1222362518310547,-0.7670041918754578,28.25,0.0,2.1883249282836914,-1.1365413665771484,-0.7670041918754578,21.25,0.0,2.430438995361328,-1.0886192321777344,0.19175104796886444,16.0,0.0,2.616763114929199,-1.1029243469238281,0.19175104796886444,14.75,,,,,,,,,,,,,,,,,,,,,,,,,,,,,,,,,,,,,,,,,,,,,,,,,,
0.0,-1.3300700187683105,1.6979596614837646,-1.4006132920130199e-09,-1.2942026853561401,-1.4073657989501953,-2.3232920032256743e-09,-0.6566908359527588,-0.8041297793388367,-2.233424556408181e-11,0.0,1.6450881958007812,-0.9995698928833008,-0.3835020959377289,19.25,0.0,1.7116069793701172,-1.0296106338500977,-0.3835020959377289,21.0,0.0,2.112150192260742,-1.1909008026123047,-0.5752531439065933,14.5,0.0,1.944422721862793,-0.960230827331543,-0.5752531439065933,24.0,0.0,2.0749568939208984,-1.0339021682739258,-0.5752531439065933,23.5,,,,,,,,,,,,,,,,,,,,,,,,,,,,,,,,,,,,,,,,,,,,,,,,,,,,,,,
0.0,-0.20227579772472382,2.8240387439727783,-5.538192474063841e-11,-0.24205517768859863,-0.8208366632461548,-9.473577478047446e-11,-0.46739351749420166,-0.5978635549545288,-2.3723417327814467e-11,0.0,2.7866363525390625,-1.3121366500854492,-0.5752531439065933,16.75,0.0,2.9497146606445312,-1.4677047729492188,-0.5752531439065933,17.0,0.0,3.0165910720825195,-1.5921592712402344,-0.7670041918754578,14.25,0.0,2.7430057525634766,-0.10764598846435547,-0.5752531439065933,29.75,0.0,2.7791261672973633,-0.19562244415283203,-0.5752531439065933,26.0,0.0,2.6171207427978516,0.016808509826660156,-0.5752531439065933,13.75,0.0,2.710103988647461,-0.026464462280273438,-0.5752531439065933,26.25,0.0,3.6520957946777344,-1.6998052597045898,0.0,12.25,0.0,3.033757209777832,-0.1494884490966797,0.0,28.0,,,,,,,,,,,,,,,,,,,,,,,,,,,,,,,,,,,
0.0,-0.331421822309494,2.770085573196411,-4.521958849035279e-11,-0.4551294445991516,-0.8348979353904724,-7.384958616851733e-11,-0.6026638150215149,-0.5570279359817505,-9.803805336994209e-12,0.0,2.8148889541625977,-1.8979310989379883,-0.7670041918754578,12.5,0.0,2.9021501541137695,-1.316070556640625,-0.7670041918754578,21.0,0.0,3.239750862121582,-1.6787052154541016,-0.5752531439065933,13.5,0.0,2.90071964263916,-1.1394023895263672,-0.7670041918754578,24.25,0.0,2.866387367248535,-0.8411407470703125,-0.7670041918754578,21.25,0.0,2.730131149291992,-0.08368492126464844,-0.7670041918754578,19.5,0.0,2.6285648345947266,0.13840198516845703,-0.7670041918754578,19.25,0.0,2.5391578674316406,0.2714395523071289,-0.7670041918754578,12.5,0.0,3.0323266983032227,-0.39768218994140625,0.0,28.0,0.0,2.8867721557617188,-0.07975101470947266,0.0,29.75,,,,,,,,,,,,,,,,,,,,,,,,,,,,,,
0.0,-0.39415866136550903,2.6932051181793213,-3.582398613866111e-11,-0.5380812883377075,-0.8786199688911438,-5.46260779665797e-11,-0.6209790110588074,-0.5482062101364136,2.428094184048213e-12,0.0,2.8710365295410156,-1.3750791549682617,-0.7670041918754578,17.25,0.0,2.8656721115112305,-1.0764598846435547,-0.7670041918754578,21.75,0.0,2.765178680419922,-0.7170438766479492,-0.9587552398443222,23.75,0.0,2.6096105575561523,-0.10228157043457031,-0.7670041918754578,29.25,0.0,2.661466598510742,-0.24962425231933594,-0.7670041918754578,28.25,0.0,2.537369728088379,0.04863739013671875,-0.7670041918754578,24.0,0.0,2.410769462585449,0.13947486877441406,-0.7670041918754578,13.25,0.0,3.018021583557129,-0.2378225326538086,0.0,24.75,0.0,2.878904342651367,-0.09119510650634766,0.0,30.0,,,,,,,,,,,,,,,,,,,,,,,,,,,,,,,,,,,
0.0,-0.47840291261672974,2.6048049926757812,-2.8863501866371877e-11,-0.6473812460899353,-0.9278011918067932,-3.911973522896517e-11,-0.6612376570701599,-0.5397471189498901,1.181248675263813e-11,0.0,2.8563737869262695,-1.376509666442871,-0.7670041918754578,12.75,0.0,2.5867223739624023,-0.7928609848022461,-0.3835020959377289,28.75,0.0,2.651810646057129,-0.9795427322387695,-0.9587552398443222,23.5,0.0,2.8030872344970703,-1.0353326797485352,-0.9587552398443222,16.75,0.0,2.523064613342285,-0.46706199645996094,-0.3835020959377289,29.0,0.0,2.4150609970092773,0.006794929504394531,-0.9587552398443222,29.0,0.0,2.3546218872070312,0.09691715240478516,-1.1505062878131866,24.5,,,,,,,,,,,,,,,,,,,,,,,,,,,,,,,,,,,,,,,,,,,,,
0.0,-0.5981560945510864,2.499976634979248,-2.3230396772877526e-11,-0.786260187625885,-1.03926682472229,-2.5875867420976917e-11,-0.7104580998420715,-0.636314868927002,1.9450947796872953e-11,0.0,2.702951431274414,-1.6161203384399414,-0.19175104796886444,14.0,0.0,2.626776695251465,-1.2363195419311523,-0.9587552398443222,22.25,0.0,2.6586055755615234,-1.3976097106933594,-0.9587552398443222,20.25,0.0,2.535581588745117,-1.0864734649658203,-1.342257335782051,24.75,0.0,2.4422407150268555,-0.4538297653198242,-1.1505062878131866,26.5,0.0,2.3145675659179688,-0.2321004867553711,-1.1505062878131866,28.25,0.0,2.3467540740966797,-0.2460479736328125,-1.1505062878131866,30.75,,,,,,,,,,,,,,,,,,,,,,,,,,,,,,,,,,,,,,,,,,,,,
0.0,-0.7136952877044678,2.3503220081329346,-1.8371290599894508e-11,-0.8718550801277161,-1.254074215888977,-1.4258904820763085e-11,-0.6875544786453247,-0.8680180311203003,2.57669753589429e-11,0.0,2.4111270904541016,-1.4780759811401367,-0.3835020959377289,16.5,0.0,2.582073211669922,-1.600027084350586,-1.72575943171978,13.5,0.0,2.3381710052490234,-1.0993480682373047,-1.5340083837509155,25.25,0.0,2.436518669128418,-1.1211633682250977,-1.5340083837509155,21.0,0.0,2.1185874938964844,-0.548243522644043,-1.5340083837509155,26.75,0.0,2.2755861282348633,-0.5582571029663086,-1.5340083837509155,23.75,0.0,2.0667314529418945,-0.4602670669555664,-1.9175104796886444,14.75,,,,,,,,,,,,,,,,,,,,,,,,,,,,,,,,,,,,,,,,,,,,,
0.0,-0.9748936295509338,2.2197771072387695,-1.3570648077498859e-11,-1.268538475036621,-1.3293603658676147,-3.529366902899067e-12,-0.9922817945480347,-0.8268641233444214,3.1021782365137085e-11,0.0,1.9172430038452148,-1.1955499649047852,-0.5752531439065933,22.5,0.0,2.141118049621582,-1.3511180877685547,-2.109261527657509,15.25,0.0,2.3986101150512695,-1.392960548400879,0.3835020959377289,15.75,0.0,2.5413036346435547,-1.4147758483886719,0.3835020959377289,17.25,0.0,1.850724220275879,-0.8890628814697266,-0.5752531439065933,16.5,0.0,1.8825531005859375,-0.9655952453613281,-0.5752531439065933,28.5,0.0,2.7126073837280273,-1.3986825942993164,0.19175104796886444,15.25,0.0,2.841353416442871,-1.507401466369629,0.19175104796886444,13.0,,,,,,,,,,,,,,,,,,,,,,,,,,,,,,,,,,,,,,,,
0.0,-1.2245237827301025,2.0996274948120117,-1.0177506407083037e-11,-1.606775164604187,-1.3803467750549316,4.53343482545443e-12,-1.2245304584503174,-0.7764561772346497,3.427550951395908e-11,0.0,1.875758171081543,-1.2280941009521484,0.3835020959377289,24.25,0.0,1.9222497940063477,-1.3042688369750977,0.3835020959377289,21.0,0.0,1.9909143447875977,-1.4551877975463867,0.3835020959377289,13.0,0.0,2.2695064544677734,-1.5056133270263672,-0.9587552398443222,12.5,0.0,2.50089168548584,-1.5177726745605469,-1.342257335782051,14.75,0.0,2.624988555908203,-1.6279220581054688,-0.19175104796886444,13.75,0.0,2.779841423034668,-1.7316341400146484,0.19175104796886444,13.75,0.0,2.9418468475341797,-1.726984977722168,0.19175104796886444,12.5,,,,,,,,,,,,,,,,,,,,,,,,,,,,,,,,,,,,,,,,
0.0,-1.3628301620483398,1.9427480697631836,-8.012460486761519e-12,-1.6589888334274292,-1.4909297227859497,1.0144126857958291e-11,-1.1464954614639282,-0.8220143914222717,3.573919632460232e-11,0.0,1.7970800399780273,-1.3793706893920898,-0.3835020959377289,23.75,0.0,1.873612403869629,-1.3926029205322266,-0.3835020959377289,19.5,0.0,1.9762516021728516,-1.4605522155761719,-1.5340083837509155,14.75,0.0,1.509547233581543,-0.9309053421020508,-0.19175104796886444,13.0,,,,,,,,,,,,,,,,,,,,,,,,,,,,,,,,,,,,,,,,,,,,,,,,,,,,,,,,,,,,
0.0,-1.4811756610870361,1.796501636505127,-5.172030338729261e-12,-1.713090419769287,-1.5257470607757568,1.606383429053615e-11,-1.1235407590866089,-0.7459102869033813,3.726811914628314e-11,0.0,1.523137092590332,-0.9813308715820312,0.19175104796886444,12.0,0.0,1.5842914581298828,-1.064300537109375,0.19175104796886444,20.75,0.0,1.6254186630249023,-1.1315345764160156,0.3835020959377289,22.25,0.0,1.7337799072265625,-1.2220144271850586,0.3835020959377289,23.25,0.0,1.888275146484375,-1.2971162796020508,0.3835020959377289,18.75,,,,,,,,,,,,,,,,,,,,,,,,,,,,,,,,,,,,,,,,,,,,,,,,,,,,,,,
0.0,-1.580456018447876,1.6598480939865112,-2.8044289980544423e-12,-1.687184453010559,-1.5511531829833984,2.0605054121269895e-11,-1.0028660297393799,-0.6931830048561096,3.7785077150465085e-11,0.0,1.4702081680297852,-1.135110855102539,0.3835020959377289,15.5,0.0,1.5728473663330078,-1.180887222290039,-0.19175104796886444,15.25,0.0,1.7305612564086914,-1.2155771255493164,-0.19175104796886444,17.5,0.0,2.2770166397094727,-1.1619329452514648,0.0,17.5,,,,,,,,,,,,,,,,,,,,,,,,,,,,,,,,,,,,,,,,,,,,,,,,,,,,,,,,,,,,
0.0,-0.43450304865837097,3.126488208770752,1.3490794852771826e-12,-0.296811044216156,-0.6025614142417908,2.7070901943704317e-12,-0.3631584346294403,-0.5553022027015686,1.1214459265732057e-12,0.0,3.2300949096679688,-1.5492439270019531,-0.3835020959377289,20.75,0.0,3.3330917358398438,-1.628279685974121,-0.3835020959377289,15.25,0.0,3.2057762145996094,-1.3883113861083984,-0.5752531439065933,23.0,0.0,3.232240676879883,-0.8236169815063477,-0.5752531439065933,21.25,0.0,3.062009811401367,-0.34940242767333984,-0.5752531439065933,19.75,0.0,2.8513669967651367,0.17309188842773438,-0.7670041918754578,21.75,0.0,2.8846263885498047,0.17273426055908203,-0.5752531439065933,23.25,0.0,3.200054168701172,-0.15413761138916016,0.0,24.0,0.0,3.0841827392578125,0.06580352783203125,0.0,28.25,,,,,,,,,,,,,,,,,,,,,,,,,,,,,,,,,,,
0.0,-0.4409656226634979,3.05957293510437,1.1830278510288617e-12,-0.2860627770423889,-0.6825666427612305,2.2880130949587407e-12,-0.3195146918296814,-0.599019467830658,7.979276419288472e-13,0.0,3.19826602935791,-1.2513399124145508,-1.1505062878131866,16.0,0.0,3.350973129272461,-1.3335943222045898,-0.19175104796886444,13.75,0.0,3.1653642654418945,-0.5865097045898438,-0.7670041918754578,20.5,0.0,3.0788183212280273,-0.4012584686279297,-0.7670041918754578,22.5,0.0,2.9522180557250977,-0.07796287536621094,-0.7670041918754578,21.0,0.0,2.7219057083129883,0.1666545867919922,-0.7670041918754578,14.25,0.0,2.814173698425293,0.12445449829101562,-0.7670041918754578,19.5,0.0,3.4307241439819336,-1.6118288040161133,0.0,15.75,0.0,3.5970211029052734,-1.8135309219360352,0.0,12.75,0.0,3.08382511138916,0.058650970458984375,0.0,28.5,0.0,3.1871795654296875,-0.09584426879882812,0.0,24.25,,,,,,,,,,,,,,,,,,,,,,,,,
0.0,-0.3904501497745514,2.9654839038848877,1.118065384199396e-12,-0.17013852298259735,-0.8132193088531494,2.00163388468233e-12,-0.18527397513389587,-0.7080050706863403,5.708574888838025e-13,0.0,2.7877092361450195,-2.076387405395508,-1.9175104796886444,16.25,0.0,3.005862236022949,-2.044558525085449,-0.9587552398443222,17.0,0.0,3.199338912963867,-1.970529556274414,-0.9587552398443222,15.0,0.0,3.130674362182617,-0.8407831192016602,-1.1505062878131866,18.75,0.0,3.0519962310791016,-0.5410909652709961,-1.1505062878131866,20.25,0.0,2.864241600036621,0.0035762786865234375,-1.1505062878131866,20.75,0.0,2.7147531509399414,0.10657310485839844,-1.1505062878131866,19.5,0.0,2.7555227279663086,0.10657310485839844,-1.1505062878131866,24.0,0.0,3.068089485168457,0.014662742614746094,0.0,28.0,,,,,,,,,,,,,,,,,,,,,,,,,,,,,,,,,,,
0.0,-0.4342837333679199,2.8423445224761963,9.775290386176971e-13,-0.22675679624080658,-0.9773215651512146,1.6336302970099137e-12,-0.21056246757507324,-0.8308621048927307,3.071642332846958e-13,0.0,2.9937028884887695,-1.649022102355957,-1.342257335782051,14.75,0.0,2.830982208251953,-1.204848289489746,-1.1505062878131866,23.5,0.0,2.9278993606567383,-1.3082027435302734,-1.342257335782051,15.5,0.0,2.7923583984375,-0.9047985076904297,-1.1505062878131866,22.25,0.0,2.5777816772460938,0.0171661376953125,-1.1505062878131866,19.75,0.0,2.6214122772216797,-0.0064373016357421875,-1.1505062878131866,27.25,0.0,2.6546716690063477,-0.04971027374267578,-1.1505062878131866,25.75,,,,,,,,,,,,,,,,,,,,,,,,,,,,,,,,,,,,,,,,,,,,,
0.0,-0.5303969383239746,2.710369348526001,8.00398647100159e-13,-0.36490821838378906,-1.1443995237350464,1.238064230128788e-12,-0.3018578290939331,-0.9456111192703247,4.22229796698953e-14,0.0,2.577066421508789,-1.1368989944458008,-1.342257335782051,21.75,0.0,2.7419328689575195,-1.0764598846435547,-1.342257335782051,24.5,0.0,2.8399229049682617,-1.0968446731567383,-1.342257335782051,21.5,0.0,2.9414892196655273,-1.2034177780151367,-1.342257335782051,15.75,0.0,2.530217170715332,-0.1112222671508789,-1.1505062878131866,21.5,0.0,2.362847328186035,0.03898143768310547,-1.1505062878131866,13.0,0.0,2.4651288986206055,-0.0457763671875,-1.1505062878131866,20.25,,,,,,,,,,,,,,,,,,,,,,,,,,,,,,,,,,,,,,,,,,,,,
0.0,-0.7030077576637268,2.58488130569458,6.56009426468207e-13,-0.6387826800346375,-1.2361297607421875,9.066525741979747e-13,-0.5174087285995483,-0.9208298325538635,-1.6480564200664627e-13,0.0,2.6199817657470703,-1.3089179992675781,-1.5340083837509155,20.25,0.0,2.7358531951904297,-1.3854503631591797,-1.5340083837509155,20.25,0.0,2.8055906295776367,-1.5109777450561523,-0.19175104796886444,16.75,0.0,2.514481544494629,-1.0503530502319336,-0.3835020959377289,23.25,0.0,2.361774444580078,-0.538945198059082,-1.1505062878131866,26.75,0.0,2.433657646179199,-0.7005929946899414,-0.3835020959377289,26.5,0.0,2.2820234298706055,-0.4076957702636719,-1.1505062878131866,22.0,0.0,1.6976594924926758,-1.404404640197754,0.0,17.25,,,,,,,,,,,,,,,,,,,,,,,,,,,,,,,,,,,,,,,,
0.0,-0.8640657067298889,2.3687589168548584,5.4904350380372e-13,-0.8002008199691772,-1.587876319885254,6.329866101759118e-13,-0.5585891008377075,-1.294198751449585,-3.3272120952484996e-13,0.0,2.461552619934082,-1.7094612121582031,-2.8762657195329666,15.0,0.0,1.9115209579467773,-1.0682344436645508,-1.5340083837509155,26.0,0.0,2.38037109375,-1.3689994812011719,-2.3010125756263733,20.0,0.0,2.421140670776367,-1.5034675598144531,-2.3010125756263733,19.5,0.0,2.3328065872192383,-1.1140108108520508,-2.8762657195329666,23.0,0.0,2.15756893157959,-0.9763240814208984,-1.5340083837509155,24.0,,,,,,,,,,,,,,,,,,,,,,,,,,,,,,,,,,,,,,,,,,,,,,,,,,
0.0,-1.0937423706054688,2.178565740585327,4.4626233047448394e-13,-1.1522510051727295,-1.7305786609649658,3.8641762315980155e-13,-0.8447981476783752,-1.265255093574524,-4.66636007178528e-13,0.0,2.318859100341797,-1.6636848449707031,-2.8762657195329666,13.25,0.0,1.7641782760620117,-1.0521411895751953,-0.19175104796886444,16.25,0.0,1.8285512924194336,-1.0825395584106445,0.5752531439065933,25.0,0.0,2.018451690673828,-1.1597871780395508,0.5752531439065933,20.5,0.0,2.190113067626953,-1.3260841369628906,-0.19175104796886444,19.75,0.0,2.2716522216796875,-1.4537572860717773,-0.19175104796886444,15.25,0.0,2.9293298721313477,-0.9763240814208984,0.0,18.25,0.0,2.7201175689697266,-0.016450881958007812,0.0,23.5,,,,,,,,,,,,,,,,,,,,,,,,,,,,,,,,,,,,,,,,
0.0,-1.2407009601593018,1.9761534929275513,3.668544959999076e-13,-1.3097425699234009,-1.875104308128357,1.8612205960472084e-13,-0.9283178448677063,-1.259400486946106,-5.645074793898808e-13,0.0,1.7691850662231445,-1.238107681274414,-0.19175104796886444,24.5,0.0,1.8843412399291992,-1.3232231140136719,-0.19175104796886444,22.0,0.0,2.070307731628418,-1.3575553894042969,-0.7670041918754578,13.75,0.0,1.7148256301879883,-1.0753870010375977,-0.19175104796886444,17.75,0.0,1.7105340957641602,-0.8872747421264648,-0.7670041918754578,14.25,0.0,1.9326210021972656,-1.0213851928710938,0.0,28.25,0.0,2.828836441040039,-1.2091398239135742,0.0,18.5,0.0,2.947568893432617,-1.282811164855957,0.0,16.75,,,,,,,,,,,,,,,,,,,,,,,,,,,,,,,,,,,,,,,,
0.0,-0.2683662474155426,2.8520100116729736,-2.462416087819965e-14,-0.1998082846403122,-0.6666343808174133,-4.726423516888262e-14,-0.19322334229946136,-0.4418667256832123,-1.6443489568563306e-14,0.0,2.9468536376953125,-1.4147758483886719,-0.5752531439065933,20.25,0.0,3.051280975341797,-1.4662742614746094,-0.5752531439065933,15.75,0.0,2.8957128524780273,-0.9655952453613281,-0.5752531439065933,20.5,0.0,2.7544498443603516,-0.09620189666748047,-0.5752531439065933,30.0,0.0,2.7948617935180664,-0.19598007202148438,-0.5752531439065933,26.5,0.0,2.728700637817383,-0.04935264587402344,-0.5752531439065933,25.25,0.0,3.2726526260375977,-0.9580850601196289,0.0,18.25,0.0,2.775907516479492,0.07081031799316406,0.0,23.0,0.0,2.8624534606933594,0.04863739013671875,0.0,32.25,0.0,2.9196739196777344,0.03325939178466797,0.0,34.75,0.0,2.9872655868530273,-0.02110004425048828,0.0,31.5,,,,,,,,,,,,,,,,,,,,,,,,,
0.0,-0.3418900966644287,2.794889450073242,-2.1291711341069053e-14,-0.3098146915435791,-0.694777250289917,-3.875516579746399e-14,-0.2696763277053833,-0.4281993806362152,-1.0200035972373223e-14,0.0,2.9175281524658203,-1.0943412780761719,-0.5752531439065933,26.75,0.0,2.9164552688598633,-1.2331008911132812,-0.5752531439065933,21.25,0.0,2.9000043869018555,-0.8043050765991211,-0.5752531439065933,23.0,0.0,2.7201175689697266,0.04184246063232422,-0.7670041918754578,21.75,0.0,2.533435821533203,0.194549560546875,-0.7670041918754578,17.0,0.0,2.6035308837890625,0.17201900482177734,-0.7670041918754578,22.5,0.0,3.1571388244628906,-1.1419057846069336,0.0,16.75,0.0,3.087759017944336,-0.7724761962890625,0.0,21.5,0.0,2.8449296951293945,0.05221366882324219,0.0,32.5,0.0,2.9157400131225586,0.03933906555175781,0.0,34.75,0.0,2.99227237701416,-0.016808509826660156,0.0,30.5,,,,,,,,,,,,,,,,,,,,,,,,,
0.0,-0.4426150619983673,2.7309954166412354,-1.7610363850766725e-14,-0.45138314366340637,-0.7450201511383057,-3.016816261863439e-14,-0.3633101284503937,-0.4532112181186676,-4.248095117727812e-15,0.0,2.9135942459106445,-1.3947486877441406,-1.1505062878131866,16.0,0.0,3.0559301376342773,-1.439809799194336,-0.5752531439065933,13.0,0.0,2.8241872787475586,-1.2488365173339844,-0.7670041918754578,19.75,0.0,2.780914306640625,-0.7967948913574219,-0.7670041918754578,20.75,0.0,2.675771713256836,-0.35440921783447266,-0.7670041918754578,22.25,0.0,2.5627613067626953,0.026106834411621094,-0.7670041918754578,24.0,0.0,2.4955272674560547,0.13911724090576172,-0.7670041918754578,21.5,0.0,3.102421760559082,-1.3157129287719727,0.0,17.25,0.0,3.0298233032226562,-1.0607242584228516,0.0,21.75,,,,,,,,,,,,,,,,,,,,,,,,,,,,,,,,,,,
0.0,-0.4670068621635437,2.6497740745544434,-1.4625897471224822e-14,-0.4390600621700287,-0.833522617816925,-2.284454296195247e-14,-0.3135031759738922,-0.5311681628227234,6.164870961541512e-16,0.0,2.8409957885742188,-1.1347532272338867,-0.9587552398443222,19.75,0.0,2.715468406677246,-0.9688138961791992,-1.1505062878131866,22.25,0.0,3.017306327819824,-1.0793209075927734,-0.9587552398443222,15.0,0.0,2.6303529739379883,-0.7749795913696289,-1.1505062878131866,24.25,0.0,2.5502443313598633,0.07081031799316406,-1.1505062878131866,23.5,0.0,2.378225326538086,0.21028518676757812,-0.9587552398443222,14.5,0.0,2.4640560150146484,0.1748800277709961,-0.7670041918754578,22.25,0.0,3.159642219543457,-1.1780261993408203,0.0,17.75,0.0,3.0716657638549805,-0.9552240371704102,0.0,20.5,,,,,,,,,,,,,,,,,,,,,,,,,,,,,,,,,,,
0.0,-0.5839332938194275,2.5471115112304688,-1.2055957157607912e-14,-0.5821640491485596,-0.9628757238388062,-1.643189538158129e-14,-0.39693689346313477,-0.650838315486908,4.658448275838157e-15,0.0,2.5745630264282227,-1.2781620025634766,-1.1505062878131866,21.5,0.0,2.9178857803344727,-1.3772249221801758,-1.342257335782051,14.0,0.0,2.498745918273926,-0.9920597076416016,-1.5340083837509155,23.5,0.0,2.810239791870117,-1.1830329895019531,-1.342257335782051,16.25,0.0,2.461552619934082,-0.641942024230957,-0.9587552398443222,26.0,0.0,2.4379491806030273,-0.3508329391479492,-0.9587552398443222,24.5,0.0,2.364635467529297,0.012159347534179688,-0.9587552398443222,17.75,0.0,3.0677318572998047,-0.9702444076538086,0.0,20.25,0.0,2.986907958984375,-0.3393888473510742,0.0,23.25,,,,,,,,,,,,,,,,,,,,,,,,,,,,,,,,,,,
0.0,-0.6700047254562378,2.4515292644500732,-9.439399538705914e-15,-0.6632934212684631,-1.0352625846862793,-1.0358808063171306e-14,-0.42886659502983093,-0.6706590056419373,8.233966622677585e-15,0.0,2.7304887771606445,-1.2946128845214844,-0.19175104796886444,17.75,0.0,2.842426300048828,-1.4820098876953125,-0.19175104796886444,14.5,0.0,2.376079559326172,-0.9140968322753906,-1.342257335782051,27.25,0.0,2.5066137313842773,-1.0303258895874023,-1.342257335782051,26.25,0.0,2.624630928039551,-1.1229515075683594,-1.342257335782051,20.5,0.0,2.295255661010742,-0.3268718719482422,-0.7670041918754578,29.0,0.0,2.204418182373047,-0.15234947204589844,-0.7670041918754578,13.0,0.0,2.2416114807128906,-0.18417835235595703,-0.7670041918754578,30.0,,,,,,,,,,,,,,,,,,,,,,,,,,,,,,,,,,,,,,,,
0.0,-0.8421452045440674,2.286336660385132,-7.559780065672945e-15,-0.8584287762641907,-1.278850793838501,-5.606940100063998e-15,-0.5304366946220398,-0.9178452491760254,1.082859117044338e-14,0.0,1.7366409301757812,-1.141190528869629,-0.5752531439065933,12.25,0.0,2.32851505279541,-1.3543367385864258,-1.9175104796886444,21.0,0.0,2.386808395385742,-1.490950584411621,-2.3010125756263733,17.75,0.0,2.599954605102539,-1.5184879302978516,-0.7670041918754578,12.5,0.0,2.270221710205078,-1.1587142944335938,-1.9175104796886444,25.5,0.0,2.052783966064453,-0.8665323257446289,-1.342257335782051,27.75,0.0,2.1768808364868164,-0.9351968765258789,-1.342257335782051,27.75,,,,,,,,,,,,,,,,,,,,,,,,,,,,,,,,,,,,,,,,,,,,,
0.0,-1.0906480550765991,2.1507043838500977,-6.117570947700938e-15,-1.2528693675994873,-1.3210488557815552,-1.862425127720181e-15,-0.878692090511322,-0.7975718379020691,1.2534856880491285e-14,0.0,2.207636833190918,-1.4498233795166016,0.19175104796886444,15.0,0.0,2.3671388626098633,-1.5903711318969727,0.9587552398443222,12.25,0.0,1.8428564071655273,-1.0095834732055664,-0.5752531439065933,14.75,0.0,1.8993616104125977,-1.157999038696289,0.19175104796886444,28.0,0.0,1.9801855087280273,-1.2534856796264648,0.19175104796886444,28.25,0.0,2.0824670791625977,-1.3246536254882812,0.19175104796886444,22.5,,,,,,,,,,,,,,,,,,,,,,,,,,,,,,,,,,,,,,,,,,,,,,,,,,
0.0,-1.2660506963729858,1.9902499914169312,-4.691532535724963e-15,-1.4540926218032837,-1.4169738292694092,1.5425450410137256e-15,-1.005652904510498,-0.7821064591407776,1.3940998488536256e-14,0.0,2.0170211791992188,-1.6565322875976562,-1.1505062878131866,12.0,0.0,1.806020736694336,-1.2695789337158203,0.19175104796886444,28.25,0.0,1.8939971923828125,-1.3232231140136719,0.5752531439065933,26.75,0.0,1.9726753234863281,-1.4176368713378906,-1.1505062878131866,18.0,0.0,1.7538070678710938,-1.0575056076049805,0.19175104796886444,19.25,0.0,1.6980171203613281,-0.8633136749267578,0.19175104796886444,17.0,0.0,1.8957853317260742,-1.1508464813232422,0.0,27.0,,,,,,,,,,,,,,,,,,,,,,,,,,,,,,,,,,,,,,,,,,,,,
0.0,-0.5504422187805176,2.853731870651245,4.533100634534321e-16,-0.2516736090183258,-0.8798319101333618,9.671267608236727e-16,-0.25941357016563416,-1.0977171659469604,4.699935949594673e-16,0.0,2.9772520065307617,-1.1626482009887695,-1.1505062878131866,18.0,0.0,2.94649600982666,-0.9466409683227539,-1.1505062878131866,22.5,0.0,2.887129783630371,-0.6920099258422852,-0.7670041918754578,21.25,0.0,2.753734588623047,-0.49424171447753906,-0.9587552398443222,19.0,0.0,2.6346445083618164,-0.25463104248046875,-0.9587552398443222,16.75,0.0,3.2290220260620117,-0.8472204208374023,0.0,23.25,0.0,3.3005475997924805,-0.8679628372192383,0.0,22.75,,,,,,,,,,,,,,,,,,,,,,,,,,,,,,,,,,,,,,,,,,,,,
0.0,-0.7058876752853394,2.737948179244995,4.0833319628938e-16,-0.4852702021598816,-1.0365666151046753,8.389141893944271e-16,-0.4285348653793335,-1.1479506492614746,3.60915047822443e-16,0.0,2.649664878845215,-1.3575553894042969,-0.9587552398443222,25.25,0.0,2.680063247680664,-1.427292823791504,-1.342257335782051,24.25,0.0,2.8427839279174805,-1.3267993927001953,-1.342257335782051,15.25,0.0,2.616763114929199,-1.1097192764282227,-0.9587552398443222,20.25,0.0,2.5756359100341797,-0.2903938293457031,-0.19175104796886444,18.0,0.0,2.489805221557617,-0.15056133270263672,-0.7670041918754578,15.5,0.0,3.1589269638061523,-0.9620189666748047,0.0,21.5,0.0,3.284454345703125,-0.9452104568481445,0.0,21.5,,,,,,,,,,,,,,,,,,,,,,,,,,,,,,,,,,,,,,,,
0.0,-0.820455014705658,2.5929954051971436,3.4630248540266505e-16,-0.6102110147476196,-1.2568893432617188,6.916371297839737e-16,-0.47564396262168884,-1.297900915145874,2.447318000820865e-16,0.0,2.5388002395629883,-1.4580488204956055,-1.72575943171978,29.5,0.0,2.582430839538574,-1.4963150024414062,-1.72575943171978,23.75,0.0,2.5287866592407227,-1.3457536697387695,-1.72575943171978,26.25,0.0,2.788066864013672,-1.417994499206543,-0.3835020959377289,14.75,0.0,2.535581588745117,-0.6830692291259766,-0.9587552398443222,19.0,0.0,2.3320913314819336,-0.17273426055908203,-0.9587552398443222,16.5,0.0,2.3832321166992188,-0.19419193267822266,-0.9587552398443222,20.0,0.0,3.1070709228515625,-0.948786735534668,0.0,20.0,0.0,3.2651424407958984,-0.9441375732421875,0.0,19.25,,,,,,,,,,,,,,,,,,,,,,,,,,,,,,,,,,,
0.0,-1.0135234594345093,2.435053586959839,2.969383052091909e-16,-0.8791974186897278,-1.429173469543457,5.672358360404579e-16,-0.6649627089500427,-1.3310668468475342,1.5082131015956143e-16,0.0,2.268075942993164,-1.318216323852539,-1.342257335782051,22.75,0.0,2.6646852493286133,-1.4966726303100586,-0.19175104796886444,14.25,0.0,2.787351608276367,-1.684427261352539,-0.19175104796886444,14.5,0.0,1.9218921661376953,-0.9856224060058594,-0.19175104796886444,23.75,0.0,2.4079084396362305,-1.2788772583007812,-1.72575943171978,19.75,0.0,2.5066137313842773,-1.3393163681030273,-1.72575943171978,17.5,0.0,2.2215843200683594,-0.8075237274169922,-0.9587552398443222,19.75,0.0,3.3037662506103516,-0.7517337799072266,0.0,15.25,,,,,,,,,,,,,,,,,,,,,,,,,,,,,,,,,,,,,,,,
0.0,-1.089787244796753,2.2761895656585693,2.6365562785449085e-16,-0.9211945533752441,-1.5726040601730347,4.672046331015141e-16,-0.6443354487419128,-1.3386995792388916,7.73072081707974e-17,0.0,2.328157424926758,-1.3332366943359375,-2.3010125756263733,15.0,0.0,2.6464462280273438,-1.580357551574707,-0.3835020959377289,12.0,0.0,2.2423267364501953,-1.1916160583496094,-1.1505062878131866,19.75,0.0,1.9404888153076172,-0.8640289306640625,-0.19175104796886444,12.75,0.0,2.038121223449707,-0.7778406143188477,-0.7670041918754578,24.25,0.0,2.1518468856811523,-0.8758306503295898,-1.1505062878131866,20.75,0.0,3.1921863555908203,-1.2252330780029297,0.0,13.25,,,,,,,,,,,,,,,,,,,,,,,,,,,,,,,,,,,,,,,,,,,,,
0.0,-1.1656309366226196,2.0671401023864746,2.3579147320293577e-16,-0.8966988325119019,-1.8302221298217773,3.759915990088591e-16,-0.5183128118515015,-1.5182225704193115,1.1803146039637559e-17,0.0,2.0738840103149414,-1.6028881072998047,-2.3010125756263733,15.25,0.0,1.9555091857910156,-1.375436782836914,-2.3010125756263733,23.5,0.0,2.034902572631836,-1.4766454696655273,-2.3010125756263733,22.0,0.0,1.7756223678588867,-0.9781122207641602,-1.342257335782051,17.25,0.0,1.8496513366699219,-1.1304616928100586,-1.342257335782051,23.0,0.0,2.8563737869262695,-1.342177391052246,0.0,17.0,,,,,,,,,,,,,,,,,,,,,,,,,,,,,,,,,,,,,,,,,,,,,,,,,,
0.0,-1.2927602529525757,1.8730597496032715,2.0826253184025659e-16,-1.0507688522338867,-1.956912636756897,2.9272738679103454e-16,-0.6419661641120911,-1.4561738967895508,-4.2288907367614095e-17,0.0,1.588582992553711,-1.1347532272338867,-0.19175104796886444,13.5,0.0,1.6075372695922852,-1.21307373046875,-0.19175104796886444,16.75,0.0,1.7480850219726562,-1.2069940567016602,-0.19175104796886444,21.25,0.0,2.0956993103027344,-1.359701156616211,-0.7670041918754578,13.5,0.0,2.018451690673828,-1.1293888092041016,-1.342257335782051,17.75,0.0,1.9118785858154297,-0.9909868240356445,0.0,24.25,0.0,2.880692481994629,-1.2974739074707031,0.0,16.5,,,,,,,,,,,,,,,,,,,,,,,,,,,,,,,,,,,,,,,,,,,,,
0.0,-0.39513859152793884,2.9497485160827637,0.007171798497438431,-0.7138559818267822,-0.8783235549926758,0.01652221940457821,-0.679362416267395,-0.8818351626396179,0.00926244631409645,0.0,3.1567811965942383,-1.256704330444336,-1.1505062878131866,13.25,0.0,3.09598445892334,-0.9552240371704102,-0.7670041918754578,17.0,0.0,2.9904842376708984,-0.3948211669921875,-0.7670041918754578,20.0,0.0,2.8499364852905273,-0.16808509826660156,-0.7670041918754578,21.25,0.0,2.903580665588379,-0.2574920654296875,-0.7670041918754578,24.0,0.0,2.6972293853759766,0.2231597900390625,-0.7670041918754578,14.5,0.0,3.476858139038086,-1.3293027877807617,0.0,14.5,0.0,3.379225730895996,-1.1980533599853516,0.0,19.5,,,,,,,,,,,,,,,,,,,,,,,,,,,,,,,,,,,,,,,,
0.0,-0.5399990677833557,2.8585174083709717,0.00677266251295805,-0.8896813988685608,-0.984099268913269,0.015389053151011467,-0.7620781660079956,-0.9141576290130615,0.008247248828411102,0.0,2.877473831176758,-1.3747215270996094,-0.9587552398443222,12.75,0.0,3.024458885192871,-1.3958215713500977,-0.9587552398443222,18.0,0.0,3.130316734313965,-1.2881755828857422,-0.19175104796886444,14.0,0.0,2.8105974197387695,-0.4019737243652344,-0.9587552398443222,14.5,0.0,2.6471614837646484,-0.18739700317382812,-0.9587552398443222,17.75,0.0,2.704024314880371,-0.15914440155029297,-0.9587552398443222,18.25,0.0,3.3216476440429688,-1.3407468795776367,0.0,19.5,,,,,,,,,,,,,,,,,,,,,,,,,,,,,,,,,,,,,,,,,,,,,
0.0,-0.6271490454673767,2.761711597442627,0.006111828610301018,-0.9432052969932556,-1.0908710956573486,0.013972974382340908,-0.7351560592651367,-0.9523857235908508,0.0071266815066337585,0.0,3.1692981719970703,-1.2363195419311523,-0.7670041918754578,13.25,0.0,2.7379989624023438,-0.9913444519042969,-0.9587552398443222,18.0,0.0,3.08990478515625,-1.0750293731689453,-0.7670041918754578,15.0,0.0,2.658963203430176,-0.6723403930664062,-1.1505062878131866,18.75,0.0,2.982616424560547,-0.8865594863891602,-0.9587552398443222,16.75,0.0,2.595663070678711,-0.1112222671508789,-0.9587552398443222,18.25,0.0,2.5048255920410156,0.09262561798095703,-0.9587552398443222,13.25,,,,,,,,,,,,,,,,,,,,,,,,,,,,,,,,,,,,,,,,,,,,,
0.0,-0.6782538294792175,2.638535261154175,0.005576981231570244,-0.9127278327941895,-1.231780767440796,0.012634731829166412,-0.6315802335739136,-1.0352873802185059,0.006062917876988649,0.0,2.924680709838867,-1.3500452041625977,-0.9587552398443222,12.25,0.0,2.895355224609375,-1.1816024780273438,-1.1505062878131866,14.75,0.0,2.5838613510131836,-0.629425048828125,-1.1505062878131866,18.0,0.0,2.8105974197387695,-0.7417201995849609,-1.342257335782051,14.0,0.0,2.4973154067993164,-0.4870891571044922,-1.1505062878131866,21.5,0.0,2.3599863052368164,-0.2624988555908203,-1.1505062878131866,12.0,0.0,2.446889877319336,-0.3783702850341797,-1.1505062878131866,19.5,,,,,,,,,,,,,,,,,,,,,,,,,,,,,,,,,,,,,,,,,,,,,
0.0,-0.8461374044418335,2.5049853324890137,0.0048799398355185986,-1.0884718894958496,-1.373427391052246,0.011181393638253212,-0.7164249420166016,-1.0927622318267822,0.004997905343770981,0.0,2.795577049255371,-1.6840696334838867,-0.3835020959377289,14.25,0.0,2.920389175415039,-1.7888545989990234,-0.19175104796886444,13.5,0.0,2.433657646179199,-1.1243820190429688,-1.1505062878131866,20.0,0.0,2.5670528411865234,-1.2592077255249023,-1.72575943171978,15.0,0.0,2.7544498443603516,-1.360774040222168,-0.3835020959377289,14.5,0.0,2.375006675720215,-0.9859800338745117,-1.1505062878131866,25.75,0.0,2.371072769165039,-0.5850791931152344,-1.1505062878131866,24.0,0.0,2.290964126586914,-0.2886056900024414,-1.342257335782051,19.75,,,,,,,,,,,,,,,,,,,,,,,,,,,,,,,,,,,,,,,,
0.0,-0.9871498942375183,2.3398098945617676,0.004460233263671398,-1.1501497030258179,-1.5844377279281616,0.009985393844544888,-0.6622271537780762,-1.2609915733337402,0.004071986768394709,0.0,2.7108192443847656,-1.7534494400024414,-0.19175104796886444,14.0,0.0,2.1600723266601562,-1.1726617813110352,-1.5340083837509155,25.5,0.0,2.2716522216796875,-1.2527704238891602,-1.5340083837509155,25.75,0.0,2.472996711730957,-1.3600587844848633,-2.4927636235952377,18.0,0.0,2.6013851165771484,-1.5692710876464844,-2.4927636235952377,15.25,0.0,2.372145652770996,-1.257777214050293,-2.684514671564102,21.75,0.0,2.15756893157959,-0.6555318832397461,-1.5340083837509155,22.0,0.0,2.9289722442626953,-1.008152961730957,0.0,17.75,,,,,,,,,,,,,,,,,,,,,,,,,,,,,,,,,,,,,,,,
0.0,-1.1572942733764648,2.166524648666382,0.004280546680092812,-1.330878496170044,-1.7132402658462524,0.009078113362193108,-0.7778289318084717,-1.2433305978775024,0.0033782750833779573,0.0,2.11179256439209,-1.1812448501586914,-1.5340083837509155,27.5,0.0,2.1969079971313477,-1.2763738632202148,0.5752531439065933,27.25,0.0,2.2476911544799805,-1.3811588287353516,0.5752531439065933,19.5,0.0,2.40325927734375,-1.4290809631347656,-1.1505062878131866,13.25,0.0,1.8832683563232422,-0.9230375289916992,-1.1505062878131866,12.25,0.0,1.9758939743041992,-1.0657310485839844,-0.9587552398443222,25.0,0.0,1.9733905792236328,-0.9788274765014648,0.0,25.0,0.0,2.8238296508789062,-1.2602806091308594,0.0,17.25,,,,,,,,,,,,,,,,,,,,,,,,,,,,,,,,,,,,,,,,
0.0,-1.3077287673950195,1.9700396060943604,0.0040423013269901276,-1.4409925937652588,-1.8604037761688232,0.008070101030170918,-0.8111875653266907,-1.2589222192764282,0.002642556559294462,0.0,1.5978813171386719,-1.2989044189453125,-0.3835020959377289,22.0,0.0,1.674056053161621,-1.3679265975952148,-0.3835020959377289,29.5,0.0,1.6797780990600586,-1.016378402709961,-1.342257335782051,14.5,0.0,1.9708871841430664,-1.2431144714355469,-0.3835020959377289,27.0,0.0,2.138972282409668,-1.2445449829101562,-0.9587552398443222,20.0,0.0,2.2437572479248047,-1.3436079025268555,-0.9587552398443222,15.5,0.0,2.79843807220459,-1.312851905822754,0.0,16.75,,,,,,,,,,,,,,,,,,,,,,,,,,,,,,,,,,,,,,,,,,,,,
0.0,-1.4169228076934814,1.796486496925354,0.0036931377835571766,-1.4574730396270752,-1.9452402591705322,0.0069793108850717545,-0.7595938444137573,-1.2141858339309692,0.0019053907599300146,0.0,1.5696287155151367,-1.2145042419433594,-0.3835020959377289,21.0,0.0,1.636505126953125,-1.3729333877563477,-0.19175104796886444,22.75,0.0,1.5649795532226562,-1.078963279724121,-0.3835020959377289,16.5,0.0,1.9762516021728516,-1.3203620910644531,-1.5340083837509155,20.25,0.0,2.0999908447265625,-1.3893842697143555,-0.5752531439065933,19.0,0.0,2.1915435791015625,-1.4455318450927734,-0.5752531439065933,15.25,0.0,1.7058849334716797,-1.3943910598754883,0.0,27.0,0.0,2.785205841064453,-1.3164281845092773,0.0,16.75,,,,,,,,,,,,,,,,,,,,,,,,,,,,,,,,,,,,,,,,
0.0,-0.20260173082351685,3.0544309616088867,0.008746903389692307,0.1952645480632782,-0.4129856526851654,0.028797902166843414,-0.19854146242141724,-0.8520112633705139,0.025941213592886925,0.0,3.1778812408447266,-1.696944236755371,-0.3835020959377289,16.0,0.0,3.231525421142578,-1.416921615600586,-0.3835020959377289,16.5,0.0,3.1692981719970703,-0.7545948028564453,-0.3835020959377289,13.0,0.0,2.902865409851074,-0.2853870391845703,-0.3835020959377289,22.25,0.0,2.971529960632324,-0.4119873046875,-0.19175104796886444,19.25,0.0,2.847433090209961,-0.09763240814208984,-0.3835020959377289,20.25,0.0,2.753734588623047,0.07045269012451172,-0.3835020959377289,12.5,0.0,2.8846263885498047,-0.01609325408935547,0.0,23.0,0.0,2.9375553131103516,-0.03218650817871094,0.0,26.75,0.0,3.0394792556762695,-0.09262561798095703,0.0,24.0,,,,,,,,,,,,,,,,,,,,,,,,,,,,,,
0.0,-0.18583832681179047,3.0037405490875244,0.009151139296591282,0.1714746057987213,-0.4972171485424042,0.028460539877414703,-0.20218728482723236,-0.8430713415145874,0.024463821202516556,0.0,3.178238868713379,-1.3360977172851562,-0.3835020959377289,18.5,0.0,3.2140016555786133,-1.444101333618164,-0.3835020959377289,14.5,0.0,3.1489133834838867,-0.9881258010864258,-0.3835020959377289,19.25,0.0,2.99835205078125,-0.3758668899536133,-0.3835020959377289,20.75,0.0,2.8874874114990234,-0.10013580322265625,-0.3835020959377289,25.5,0.0,2.824544906616211,0.08547306060791016,-0.5752531439065933,24.75,0.0,2.7283430099487305,0.22923946380615234,-0.5752531439065933,18.5,,,,,,,,,,,,,,,,,,,,,,,,,,,,,,,,,,,,,,,,,,,,,
0.0,-0.2304433286190033,2.945772171020508,0.00936032086610794,0.05858446657657623,-0.5834935903549194,0.027857832610607147,-0.2743265628814697,-0.840782105922699,0.022946635261178017,0.0,2.9332637786865234,-1.0567903518676758,-0.3835020959377289,20.25,0.0,3.0426979064941406,-1.0421276092529297,-0.5752531439065933,18.75,0.0,2.891421318054199,-0.3358125686645508,-0.5752531439065933,20.25,0.0,2.7594566345214844,0.05364418029785156,-0.5752531439065933,20.5,0.0,2.6339292526245117,0.2828836441040039,-0.7670041918754578,18.25,0.0,3.152132034301758,-1.0399818420410156,0.0,23.5,,,,,,,,,,,,,,,,,,,,,,,,,,,,,,,,,,,,,,,,,,,,,,,,,,
0.0,-0.26125356554985046,2.8791568279266357,0.00897321105003357,-0.022572537884116173,-0.6763678193092346,0.026566777378320694,-0.31591594219207764,-0.8516066670417786,0.021177375689148903,0.0,3.0094385147094727,-1.5456676483154297,-0.5752531439065933,13.25,0.0,2.9668807983398438,-0.9076595306396484,-0.5752531439065933,23.5,0.0,3.05020809173584,-0.9491443634033203,-0.7670041918754578,18.5,0.0,2.911806106567383,-0.6326436996459961,-0.5752531439065933,20.5,0.0,2.536654472351074,0.22530555725097656,-0.7670041918754578,12.75,0.0,2.6181936264038086,0.22423267364501953,-0.7670041918754578,19.0,0.0,2.72369384765625,0.13196468353271484,-0.7670041918754578,19.0,0.0,3.157496452331543,-1.021742820739746,0.0,22.0,,,,,,,,,,,,,,,,,,,,,,,,,,,,,,,,,,,,,,,,
0.0,-0.40005093812942505,2.799410343170166,0.008184019476175308,-0.2582087218761444,-0.7990332841873169,0.02484569139778614,-0.4730414152145386,-0.9104674458503723,0.019280077889561653,0.0,2.879619598388672,-2.115011215209961,-0.7670041918754578,12.25,0.0,2.9325485229492188,-1.3360977172851562,-0.5752531439065933,19.5,0.0,2.843499183654785,-1.2606382369995117,-0.9587552398443222,23.25,0.0,3.0684471130371094,-1.3808012008666992,-0.7670041918754578,15.0,0.0,2.799868583679199,-0.9323358535766602,-0.9587552398443222,22.25,0.0,2.689361572265625,-0.3966093063354492,-0.9587552398443222,21.75,0.0,2.570986747741699,0.0050067901611328125,-0.9587552398443222,23.0,0.0,2.5005340576171875,0.11050701141357422,-0.9587552398443222,20.5,0.0,3.0956268310546875,-1.066446304321289,0.0,21.25,,,,,,,,,,,,,,,,,,,,,,,,,,,,,,,,,,,
0.0,-0.47565436363220215,2.714507579803467,0.0072813211008906364,-0.3676784038543701,-0.9320375323295593,0.023023616522550583,-0.5137791633605957,-0.9893556237220764,0.01742369867861271,0.0,2.927541732788086,-2.0095109939575195,-0.19175104796886444,13.5,0.0,3.0069351196289062,-1.5288591384887695,-0.19175104796886444,16.5,0.0,2.8846263885498047,-1.0868310928344727,-1.342257335782051,25.5,0.0,2.8209686279296875,-1.0181665420532227,-1.342257335782051,25.75,0.0,2.990841865539551,-1.110076904296875,-1.1505062878131866,20.75,0.0,2.753019332885742,-0.5707740783691406,-0.9587552398443222,20.75,0.0,2.5359392166137695,0.07975101470947266,-0.9587552398443222,21.25,0.0,2.376079559326172,0.13339519500732422,-0.9587552398443222,14.0,0.0,2.447962760925293,0.10907649993896484,-0.9587552398443222,21.75,0.0,3.109574317932129,-1.0982751846313477,0.0,18.75,,,,,,,,,,,,,,,,,,,,,,,,,,,,,,
0.0,-0.5691852569580078,2.59348464012146,0.0068807704374194145,-0.4806675910949707,-1.1365457773208618,0.021703355014324188,-0.5439406633377075,-1.160025715827942,0.01586194708943367,0.0,2.6668310165405273,-1.2198686599731445,-1.5340083837509155,25.75,0.0,2.7447938919067383,-1.2524127960205078,-1.5340083837509155,22.75,0.0,2.613186836242676,-1.018524169921875,-1.5340083837509155,23.5,0.0,2.8645992279052734,-1.2888908386230469,-0.9587552398443222,13.25,0.0,2.5638341903686523,-0.400543212890625,-1.72575943171978,21.5,0.0,2.470850944519043,-0.18990039825439453,-1.1505062878131866,18.25,0.0,2.331376075744629,-0.00035762786865234375,-0.7670041918754578,12.25,,,,,,,,,,,,,,,,,,,,,,,,,,,,,,,,,,,,,,,,,,,,,
0.0,-0.7322478294372559,2.4563674926757812,0.006583455018699169,-0.700944721698761,-1.3275930881500244,0.020528016611933708,-0.665556013584137,-1.2748714685440063,0.014457782730460167,0.0,2.482295036315918,-1.4569759368896484,-1.72575943171978,19.25,0.0,2.5795698165893555,-1.5910863876342773,-2.109261527657509,16.5,0.0,2.7490854263305664,-1.669764518737793,0.19175104796886444,13.5,0.0,2.4261474609375,-1.306772232055664,-1.72575943171978,22.0,0.0,2.4025440216064453,-0.996708869934082,-1.72575943171978,22.0,0.0,2.3299455642700195,-0.5071163177490234,-1.1505062878131866,21.25,0.0,2.235531806945801,-0.35762786865234375,-1.1505062878131866,20.25,,,,,,,,,,,,,,,,,,,,,,,,,,,,,,,,,,,,,,,,,,,,,
0.0,-0.8942838311195374,2.2792365550994873,0.006690597161650658,-0.9088945984840393,-1.5320734977722168,0.019732655957341194,-0.7751917839050293,-1.3646563291549683,0.01329784095287323,0.0,1.783132553100586,-1.0199546813964844,-0.19175104796886444,15.25,0.0,2.191901206970215,-1.2459754943847656,-2.109261527657509,22.25,0.0,2.258777618408203,-1.395106315612793,-1.9175104796886444,15.25,0.0,2.454400062561035,-1.4591217041015625,-1.342257335782051,12.5,0.0,2.140045166015625,-1.0052919387817383,-0.7670041918754578,23.75,0.0,1.9952058792114258,-0.8693933486938477,-1.1505062878131866,24.75,0.0,1.7330646514892578,-1.227736473083496,0.0,22.5,,,,,,,,,,,,,,,,,,,,,,,,,,,,,,,,,,,,,,,,,,,,,
0.0,-1.0433577299118042,2.076781749725342,0.006252993829548359,-1.049277663230896,-1.7734324932098389,0.018262363970279694,-0.8030492067337036,-1.502929925918579,0.0118199922144413,0.0,1.9440650939941406,-1.3042688369750977,-2.4927636235952377,22.25,0.0,2.094268798828125,-1.4333724975585938,-1.1505062878131866,19.0,0.0,2.2072792053222656,-1.507401466369629,-1.5340083837509155,16.25,0.0,2.369999885559082,-1.5707015991210938,-1.5340083837509155,12.75,0.0,1.7309188842773438,-0.9434223175048828,-1.9175104796886444,13.75,0.0,1.760244369506836,-0.9713172912597656,-0.7670041918754578,19.5,0.0,1.8249750137329102,-1.0685920715332031,-0.7670041918754578,25.25,0.0,1.7627477645874023,-1.180887222290039,0.0,22.25,,,,,,,,,,,,,,,,,,,,,,,,,,,,,,,,,,,,,,,,
0.0,-1.2068305015563965,1.8825030326843262,0.006588604301214218,-1.2688257694244385,-1.9064213037490845,0.01775999367237091,-0.954453706741333,-1.4487404823303223,0.010976744815707207,0.0,1.6869306564331055,-1.257777214050293,-0.5752531439065933,26.25,0.0,1.8943548202514648,-1.2456178665161133,-0.7670041918754578,20.5,0.0,1.668691635131836,-0.971674919128418,0.19175104796886444,20.75,0.0,1.7026662826538086,-1.0360479354858398,0.19175104796886444,23.0,0.0,2.122163772583008,-1.2216567993164062,-1.342257335782051,13.5,0.0,1.717686653137207,-1.2509822845458984,0.0,24.25,,,,,,,,,,,,,,,,,,,,,,,,,,,,,,,,,,,,,,,,,,,,,,,,,,
0.0,-1.2659173011779785,1.7258329391479492,0.0064297812059521675,-1.2256269454956055,-1.9811365604400635,0.01664023846387863,-0.8289732933044434,-1.385193109512329,0.009830628521740437,0.0,1.5807151794433594,-1.0846853256225586,-0.7670041918754578,15.0,0.0,1.6590356826782227,-1.1680126190185547,-0.7670041918754578,16.75,0.0,1.862168312072754,-1.152634620666504,-1.1505062878131866,23.0,0.0,2.019166946411133,-1.1086463928222656,-1.1505062878131866,21.75,0.0,2.180814743041992,-1.0879039764404297,-1.1505062878131866,12.25,0.0,1.7423629760742188,-1.2356042861938477,0.0,24.5,0.0,2.8460025787353516,-1.1723041534423828,0.0,20.5,,,,,,,,,,,,,,,,,,,,,,,,,,,,,,,,,,,,,,,,,,,,,
0.0,-1.3404536247253418,1.5897729396820068,0.006470944732427597,-1.216124176979065,-1.9981143474578857,0.015794474631547928,-0.752277672290802,-1.26531982421875,0.008898677304387093,0.0,1.6329288482666016,-1.3246536254882812,-0.19175104796886444,15.25,0.0,1.8428564071655273,-1.2359619140625,-0.9587552398443222,23.25,0.0,1.94549560546875,-1.21307373046875,-0.9587552398443222,21.5,0.0,2.2548437118530273,-0.9173154830932617,-0.9587552398443222,12.75,,,,,,,,,,,,,,,,,,,,,,,,,,,,,,,,,,,,,,,,,,,,,,,,,,,,,,,,,,,,
0.0,-0.5384231209754944,2.8608903884887695,0.00017637410201132298,-0.19558706879615784,-0.7063753604888916,0.0002525493036955595,-0.07142318785190582,-0.33711305260658264,3.330395702505484e-05,0.0,2.862095832824707,-1.2799501419067383,-0.5752531439065933,24.25,0.0,2.967238426208496,-1.2298822402954102,-0.19175104796886444,21.75,0.0,3.0205249786376953,-1.3521909713745117,-0.19175104796886444,14.75,0.0,2.7065277099609375,-0.10192394256591797,-0.5752531439065933,24.5,0.0,2.718329429626465,-0.1316070556640625,-0.5752531439065933,27.75,0.0,2.807736396789551,-0.17523765563964844,-0.5752531439065933,22.0,0.0,3.246903419494629,-1.141190528869629,0.0,18.5,,,,,,,,,,,,,,,,,,,,,,,,,,,,,,,,,,,,,,,,,,,,,
0.0,-0.49546971917152405,2.8046305179595947,0.0001523914688732475,-0.1046527549624443,-0.6975416541099548,0.0002002693508984521,0.0023088231682777405,-0.2832820415496826,2.7495807444211096e-06,0.0,2.9343366622924805,-1.2263059616088867,-0.5752531439065933,16.5,0.0,2.85494327545166,-1.0170936584472656,-0.5752531439065933,22.75,0.0,2.825617790222168,-0.49424171447753906,-0.5752531439065933,25.5,0.0,2.725839614868164,-0.10478496551513672,-0.5752531439065933,27.5,0.0,2.6339292526245117,0.08118152618408203,-0.5752531439065933,26.75,0.0,2.5441646575927734,0.1544952392578125,-0.5752531439065933,20.75,0.0,3.197193145751953,-1.1780261993408203,0.0,15.5,,,,,,,,,,,,,,,,,,,,,,,,,,,,,,,,,,,,,,,,,,,,,
0.0,-0.5327932238578796,2.73435115814209,0.00012969732051715255,-0.1489247828722,-0.726157009601593,0.00015220890054479241,-0.0338902547955513,-0.2829551696777344,-2.4032113287830725e-05,0.0,2.949357032775879,-1.1608600616455078,-0.9587552398443222,15.0,0.0,2.7272701263427734,-0.9588003158569336,-0.5752531439065933,25.5,0.0,2.8628110885620117,-0.9655952453613281,-0.9587552398443222,22.25,0.0,2.6857852935791016,-0.4906654357910156,-0.5752531439065933,26.75,0.0,2.628207206726074,-0.19991397857666016,-0.5752531439065933,26.25,0.0,2.557039260864258,-0.04792213439941406,-0.5752531439065933,19.0,0.0,3.1696557998657227,-1.2280941009521484,0.0,16.25,,,,,,,,,,,,,,,,,,,,,,,,,,,,,,,,,,,,,,,,,,,,,
0.0,-0.5605590343475342,2.656851291656494,0.00010475500312168151,-0.17252479493618011,-0.76385897397995,0.00010385614586994052,-0.04927859455347061,-0.2951563000679016,-4.974145122105256e-05,0.0,2.9429197311401367,-1.2624263763427734,-0.5752531439065933,13.0,0.0,2.7315616607666016,-0.8565187454223633,-0.9587552398443222,19.75,0.0,2.8935670852661133,-0.9891986846923828,-0.9587552398443222,15.75,0.0,2.590656280517578,-0.7356405258178711,-0.3835020959377289,23.5,0.0,2.538442611694336,-0.3883838653564453,-0.7670041918754578,24.25,0.0,2.476930618286133,-0.18990039825439453,-0.7670041918754578,22.25,0.0,2.3828744888305664,-0.0654458999633789,-0.7670041918754578,14.0,,,,,,,,,,,,,,,,,,,,,,,,,,,,,,,,,,,,,,,,,,,,,
0.0,-0.6954119205474854,2.54001522064209,8.367012196686119e-05,-0.36188554763793945,-0.9088722467422485,6.313271296676248e-05,-0.18534061312675476,-0.4545571208000183,-7.01634562574327e-05,0.0,2.53450870513916,-1.3561248779296875,-1.342257335782051,20.75,0.0,2.7240514755249023,-1.362919807434082,-1.342257335782051,19.0,0.0,2.8374195098876953,-1.4344453811645508,-0.7670041918754578,15.5,0.0,2.4558305740356445,-1.095414161682129,-1.342257335782051,26.25,0.0,2.4476051330566406,-0.7359981536865234,-0.9587552398443222,28.75,0.0,2.3031234741210938,-0.5775690078735352,-0.7670041918754578,19.75,0.0,2.405405044555664,-0.5460977554321289,-0.9587552398443222,27.0,,,,,,,,,,,,,,,,,,,,,,,,,,,,,,,,,,,,,,,,,,,,,
0.0,-0.8374569416046143,2.434098243713379,6.811837374698371e-05,-0.5681427717208862,-0.9679622650146484,3.059409209527075e-05,-0.3490976095199585,-0.4507531523704529,-8.469264139421284e-05,0.0,2.6210546493530273,-1.4902353286743164,0.19175104796886444,14.0,0.0,2.404332160949707,-1.2252330780029297,-1.9175104796886444,21.5,0.0,2.506256103515625,-1.3021230697631836,-1.72575943171978,18.0,0.0,2.2759437561035156,-0.8522272109985352,0.3835020959377289,25.75,0.0,2.3653507232666016,-1.0188817977905273,0.3835020959377289,26.25,0.0,2.164006233215332,-0.7256269454956055,-0.9587552398443222,23.0,,,,,,,,,,,,,,,,,,,,,,,,,,,,,,,,,,,,,,,,,,,,,,,,,,
0.0,-0.9644503593444824,2.305999994277954,5.398315261118114e-05,-0.7274644374847412,-1.0549055337905884,1.6179237718461081e-06,-0.4580974280834198,-0.4808279275894165,-9.662331285653636e-05,0.0,2.2934675216674805,-1.3375282287597656,0.3835020959377289,19.0,0.0,2.4143457412719727,-1.445174217224121,0.3835020959377289,13.5,0.0,1.9068717956542969,-0.9680986404418945,-1.1505062878131866,13.0,0.0,2.2115707397460938,-1.1951923370361328,-0.7670041918754578,26.5,0.0,2.0667314529418945,-0.8515119552612305,-1.1505062878131866,28.75,0.0,2.164006233215332,-0.926971435546875,-0.7670041918754578,28.5,0.0,2.8334856033325195,-1.199483871459961,0.0,19.5,0.0,2.9268264770507812,-1.2881755828857422,0.0,18.0,,,,,,,,,,,,,,,,,,,,,,,,,,,,,,,,,,,,,,,,
0.0,-1.1208232641220093,2.142012357711792,4.1099869122263044e-05,-0.9209519624710083,-1.1938997507095337,-2.385845800745301e-05,-0.5857152342796326,-0.5625142455101013,-0.0001060503491316922,0.0,1.7859935760498047,-1.1919736862182617,-0.9587552398443222,27.0,0.0,1.970529556274414,-1.3017654418945312,-0.19175104796886444,25.5,0.0,2.1146535873413086,-1.3654232025146484,-0.19175104796886444,21.75,0.0,2.1986961364746094,-1.4333724975585938,-0.19175104796886444,17.0,0.0,1.7076730728149414,-0.9799003601074219,-0.9587552398443222,14.25,0.0,1.7162561416625977,-1.0718107223510742,-0.9587552398443222,20.75,,,,,,,,,,,,,,,,,,,,,,,,,,,,,,,,,,,,,,,,,,,,,,,,,,
0.0,-0.5740748643875122,2.899787425994873,2.452209990622123e-09,-0.36862385272979736,-0.35723376274108887,3.474209808729256e-09,-0.30453452467918396,-0.20478859543800354,6.787609363456681e-11,0.0,3.036618232727051,-2.329230308532715,-0.3835020959377289,12.5,0.0,3.1725168228149414,-1.6411542892456055,0.19175104796886444,12.25,0.0,3.231525421142578,-1.0879039764404297,-0.3835020959377289,17.25,0.0,3.166794776916504,-0.8132457733154297,-0.3835020959377289,18.25,0.0,2.9500722885131836,-0.6676912307739258,-0.3835020959377289,20.5,0.0,2.7583837509155273,-0.1055002212524414,-0.5752531439065933,30.0,0.0,2.8084516525268555,-0.12409687042236328,-0.5752531439065933,26.25,0.0,2.741217613220215,-0.06794929504394531,-0.3835020959377289,25.0,0.0,3.147125244140625,-1.1436939239501953,0.0,20.75,0.0,3.3037662506103516,-1.124739646911621,0.0,12.75,0.0,3.023386001586914,-0.7073879241943359,0.0,28.25,0.0,2.8853416442871094,-0.22494792938232422,0.0,29.25,0.0,2.753019332885742,-0.017523765563964844,0.0,23.25,0.0,2.8034448623657227,-0.0661611557006836,0.0,29.75,,,,,,,,,,
0.0,-0.568846583366394,2.857072114944458,2.079745042848913e-09,-0.31523242592811584,-0.41255393624305725,2.573230073465993e-09,-0.22455859184265137,-0.26927292346954346,-5.024077820436901e-10,0.0,2.962946891784668,-1.6075372695922852,-0.5752531439065933,18.5,0.0,2.9768943786621094,-1.1208057403564453,-0.3835020959377289,21.75,0.0,3.028750419616699,-1.2259483337402344,-0.3835020959377289,20.25,0.0,2.653956413269043,-0.02682209014892578,-0.5752531439065933,25.5,0.0,2.6857852935791016,-0.0718832015991211,-0.5752531439065933,26.25,0.0,2.819538116455078,-0.006079673767089844,-0.5752531439065933,19.75,0.0,2.571702003479004,0.08547306060791016,-0.5752531439065933,17.75,0.0,3.0094385147094727,-0.7113218307495117,0.0,27.75,0.0,2.7894973754882812,-0.09906291961669922,0.0,30.0,0.0,2.8742551803588867,-0.24461746215820312,0.0,29.25,0.0,2.7244091033935547,-0.04112720489501953,0.0,24.75,,,,,,,,,,,,,,,,,,,,,,,,,
0.0,-0.6665776371955872,2.8071396350860596,1.8058388118191715e-09,-0.43893569707870483,-0.49704933166503906,1.8492911646461607e-09,-0.3003067970275879,-0.36717483401298523,-9.301940884220983e-10,0.0,2.9146671295166016,-1.587510108947754,-0.5752531439065933,14.75,0.0,2.9382705688476562,-1.1826753616333008,-0.5752531439065933,25.5,0.0,2.914309501647949,-0.9173154830932617,-0.5752531439065933,25.0,0.0,2.936124801635742,-1.0718107223510742,-0.7670041918754578,29.25,0.0,2.8023719787597656,-0.43201446533203125,-0.5752531439065933,17.75,0.0,2.640366554260254,-0.11515617370605469,-0.7670041918754578,16.0,0.0,2.8885602951049805,-0.3393888473510742,0.0,30.25,0.0,2.797722816467285,-0.11587142944335938,0.0,30.25,0.0,2.7158260345458984,-0.022172927856445312,0.0,24.75,,,,,,,,,,,,,,,,,,,,,,,,,,,,,,,,,,,
0.0,-0.6477119326591492,2.7452168464660645,1.4168574091755204e-09,-0.34114301204681396,-0.5839544534683228,1.0237901637566438e-09,-0.17508918046951294,-0.4589911699295044,-1.3968217693616225e-09,0.0,2.971172332763672,-1.5850067138671875,-0.5752531439065933,14.5,0.0,2.855658531188965,-1.113295555114746,-0.5752531439065933,21.25,0.0,2.955794334411621,-1.2720823287963867,-0.5752531439065933,16.0,0.0,2.780914306640625,-0.9065866470336914,-0.7670041918754578,24.0,0.0,2.6743412017822266,-0.3679990768432617,-0.7670041918754578,23.5,0.0,2.498745918273926,-0.02968311309814453,-0.7670041918754578,23.75,0.0,2.553105354309082,-0.07331371307373047,-0.7670041918754578,26.0,0.0,2.396106719970703,0.1226663589477539,-0.7670041918754578,14.0,0.0,2.7920007705688477,-0.13697147369384766,0.0,30.5,0.0,2.863168716430664,-0.26929378509521484,0.0,29.5,,,,,,,,,,,,,,,,,,,,,,,,,,,,,,
0.0,-0.5990586280822754,2.6739978790283203,1.1276931610737506e-09,-0.19879135489463806,-0.6731891632080078,3.838964146574142e-10,-0.02350015938282013,-0.539928674697876,-1.717858966188146e-09,0.0,2.8388500213623047,-1.066446304321289,-0.7670041918754578,18.0,0.0,2.956867218017578,-1.1597871780395508,-0.7670041918754578,12.25,0.0,2.7773380279541016,-0.8382797241210938,-0.7670041918754578,22.75,0.0,2.6350021362304688,-0.527501106262207,-1.1505062878131866,24.0,0.0,2.509474754333496,-0.2067089080810547,-0.7670041918754578,27.25,0.0,2.3871660232543945,0.05936622619628906,-0.9587552398443222,20.25,0.0,2.4476051330566406,-0.020742416381835938,-0.7670041918754578,27.25,0.0,3.0913352966308594,-1.2660026550292969,0.0,18.0,0.0,3.016948699951172,-1.1050701141357422,0.0,22.75,0.0,2.8696060180664062,-0.3629922866821289,0.0,29.0,0.0,2.767324447631836,-0.15556812286376953,0.0,30.25,,,,,,,,,,,,,,,,,,,,,,,,,
0.0,-0.6415560245513916,2.5824854373931885,8.272894591598856e-10,-0.22599884867668152,-0.8123999238014221,-2.2026545865028169e-10,-0.02870805561542511,-0.6764810681343079,-1.9977897114387133e-09,0.0,2.716183662414551,-1.747727394104004,-0.9587552398443222,16.5,0.0,2.6886463165283203,-1.4948844909667969,-0.9587552398443222,18.75,0.0,2.873539924621582,-1.8296241760253906,-0.9587552398443222,14.25,0.0,2.6292800903320312,-1.3854503631591797,-0.9587552398443222,18.25,0.0,2.574920654296875,-0.5174875259399414,-1.342257335782051,18.0,0.0,2.350330352783203,-0.1512765884399414,-0.9587552398443222,27.25,0.0,2.3735761642456055,-0.1552104949951172,-0.9587552398443222,31.25,0.0,2.4182796478271484,-0.19240379333496094,-0.9587552398443222,27.25,0.0,2.961874008178711,-1.981973648071289,0.0,13.25,0.0,2.7365684509277344,-0.19741058349609375,0.0,29.5,,,,,,,,,,,,,,,,,,,,,,,,,,,,,,
0.0,-0.6769790649414062,2.488132953643799,5.669820724030217e-10,-0.24860742688179016,-0.9043556451797485,-7.23539894664782e-10,-0.04255622625350952,-0.7089090943336487,-2.1943211692132536e-09,0.0,2.623915672302246,-1.4891624450683594,-0.3835020959377289,18.5,0.0,2.67183780670166,-1.690506935119629,-0.3835020959377289,13.25,0.0,2.5180578231811523,-1.1429786682128906,-1.1505062878131866,19.0,0.0,2.6189088821411133,-1.2756586074829102,-1.1505062878131866,20.5,0.0,2.3717880249023438,-0.6809234619140625,-1.1505062878131866,23.25,0.0,2.2687911987304688,-0.3261566162109375,-0.7670041918754578,29.25,0.0,2.2383928298950195,-0.12624263763427734,-0.7670041918754578,30.5,0.0,2.196192741394043,-0.054717063903808594,-0.9587552398443222,15.5,0.0,2.845287322998047,-0.3769397735595703,0.0,22.0,0.0,2.731919288635254,-0.1519918441772461,0.0,28.25,,,,,,,,,,,,,,,,,,,,,,,,,,,,,,
0.0,-0.7556804418563843,2.3880834579467773,3.429337369631469e-10,-0.35329553484916687,-0.9822832345962524,-1.13361142695112e-09,-0.13499532639980316,-0.7059671878814697,-2.318805591983164e-09,0.0,2.547740936279297,-1.6314983367919922,-0.19175104796886444,14.0,0.0,2.541661262512207,-1.6275644302368164,-0.19175104796886444,13.75,0.0,2.3224353790283203,-1.0689496994018555,-1.342257335782051,25.5,0.0,2.4279356002807617,-1.1301040649414062,-1.342257335782051,21.25,0.0,2.482295036315918,-1.3310909271240234,-1.1505062878131866,17.25,0.0,2.22015380859375,-0.8014440536499023,-0.19175104796886444,26.5,0.0,2.113938331604004,-0.16200542449951172,-0.7670041918754578,19.25,0.0,2.149343490600586,-0.18346309661865234,-0.7670041918754578,29.5,0.0,2.9540061950683594,-1.270294189453125,0.0,18.0,0.0,2.8367042541503906,-0.5686283111572266,0.0,19.5,,,,,,,,,,,,,,,,,,,,,,,,,,,,,,
0.0,-0.9016095399856567,2.2702391147613525,1.5681567155922949e-10,-0.5801755785942078,-1.0665998458862305,-1.4514980328783622e-09,-0.3380354642868042,-0.6909561157226562,-2.37612951536903e-09,0.0,2.1969079971313477,-1.4233589172363281,-0.5752531439065933,19.5,0.0,2.3446083068847656,-1.5742778778076172,-1.72575943171978,14.75,0.0,2.1407604217529297,-1.2570619583129883,-0.5752531439065933,28.5,0.0,2.6046037673950195,-1.5764236450195312,-0.3835020959377289,12.25,0.0,2.0978450775146484,-1.1211633682250977,0.19175104796886444,31.5,0.0,2.089977264404297,-0.7728338241577148,-0.7670041918754578,29.75,0.0,2.0313262939453125,-0.5117654800415039,-0.9587552398443222,18.0,0.0,2.7573108673095703,-1.0317564010620117,0.0,18.0,0.0,2.823472023010254,-1.2180805206298828,0.0,20.5,,,,,,,,,,,,,,,,,,,,,,,,,,,,,,,,,,,
0.0,-1.155091404914856,2.172698497772217,-2.551202304967859e-11,-1.0445328950881958,-1.0328055620193481,-1.7372068228382886e-09,-0.8006207346916199,-0.4643864631652832,-2.411078670050415e-09,0.0,2.2197961807250977,-1.7699003219604492,0.7670041918754578,19.25,0.0,2.3245811462402344,-1.8743276596069336,-0.3835020959377289,14.75,0.0,1.7162561416625977,-1.1004209518432617,-0.3835020959377289,15.25,0.0,2.161860466003418,-1.5281438827514648,0.5752531439065933,21.0,0.0,1.9583702087402344,-1.1115074157714844,0.5752531439065933,27.5,0.0,2.1146535873413086,-1.1562108993530273,0.5752531439065933,28.5,0.0,2.1604299545288086,-1.2345314025878906,0.5752531439065933,24.75,0.0,2.7283430099487305,-1.0671615600585938,0.0,17.75,,,,,,,,,,,,,,,,,,,,,,,,,,,,,,,,,,,,,,,,
0.0,-1.3456512689590454,2.0500776767730713,-1.8064627571590108e-10,-1.345539927482605,-1.047987937927246,-1.9448729293713996e-09,-1.0669463872909546,-0.35260069370269775,-2.392030573616921e-09,0.0,1.4666318893432617,-1.1272430419921875,0.7670041918754578,12.75,0.0,1.62506103515625,-1.1601448059082031,0.19175104796886444,13.75,0.0,1.7691850662231445,-1.2298822402954102,0.5752531439065933,21.5,0.0,1.9769668579101562,-1.2749433517456055,0.5752531439065933,15.75,0.0,2.1969079971313477,-1.269221305847168,0.5752531439065933,14.0,0.0,2.2798776626586914,-1.383662223815918,0.5752531439065933,12.0,0.0,2.682209014892578,-1.1562108993530273,0.0,17.0,0.0,2.819180488586426,-1.2273788452148438,0.0,18.25,0.0,2.338886260986328,-0.19490718841552734,0.0,28.25,,,,,,,,,,,,,,,,,,,,,,,,,,,,,,,,,,,
