tid,posx,posy,posz,velx,vely,velz,accx,accy,accz,pointx1,pointy1,pointz1,doppler1,snr1,pointx2,pointy2,pointz2,doppler2,snr2,pointx3,pointy3,pointz3,doppler3,snr3,pointx4,pointy4,pointz4,doppler4,snr4,pointx5,pointy5,pointz5,doppler5,snr5,pointx6,pointy6,pointz6,doppler6,snr6,pointx7,pointy7,pointz7,doppler7,snr7,pointx8,pointy8,pointz8,doppler8,snr8,pointx9,pointy9,pointz9,doppler9,snr9,pointx10,pointy10,pointz10,doppler10,snr10,pointx11,pointy11,pointz11,doppler11,snr11,pointx12,pointy12,pointz12,doppler12,snr12,pointx13,pointy13,pointz13,doppler13,snr13,pointx14,pointy14,pointz14,doppler14,snr14,pointx15,pointy15,pointz15,doppler15,snr15
0.0,-6.25140019110404e-05,3.1782572269439697,-0.48611965775489807,-4.824735879083164e-05,-0.3217078447341919,-0.16001953184604645,0.00011035596980946139,-0.34301242232322693,-0.13675326108932495,0.0,3.371715545654297,-1.5853643417358398,-0.5752531439065933,14.5,0.0,3.3173561096191406,-1.4058351516723633,-0.5752531439065933,17.5,0.0,3.311634063720703,-1.0732412338256836,-0.3835020959377289,20.75,0.0,3.2297372817993164,-0.5539655685424805,-0.3835020959377289,19.75,0.0,2.9168128967285156,0.032901763916015625,-0.19175104796886444,17.25,0.0,2.9783248901367188,0.01430511474609375,-0.5752531439065933,23.25,0.0,3.0559301376342773,-0.0718832015991211,-0.3835020959377289,22.25,0.0,3.3309459686279297,-1.318216323852539,0.0,22.75,,,,,,,,,,,,,,,,,,,,,,,,,,,,,,,,,,,
0.0,-4.954014002578333e-05,3.145533323287964,-0.5927988290786743,-1.6704578229109757e-05,-0.38402700424194336,-0.32417523860931396,0.00012238445924594998,-0.39653486013412476,-0.2586333453655243,0.0,3.201127052307129,-1.2187957763671875,-0.9587552398443222,24.0,0.0,3.283381462097168,-1.3518333435058594,-0.5752531439065933,18.0,0.0,3.421783447265625,-1.4984607696533203,-0.3835020959377289,12.75,0.0,3.134608268737793,-1.1394023895263672,-0.19175104796886444,24.75,0.0,3.131747245788574,-0.5625486373901367,-0.19175104796886444,20.5,0.0,2.9790401458740234,-0.061511993408203125,-0.3835020959377289,18.0,0.0,2.8377771377563477,0.13554096221923828,-0.3835020959377289,15.0,0.0,3.345608711242676,-1.695871353149414,0.0,17.0,0.0,3.3434629440307617,-1.2885332107543945,0.0,22.0,,,,,,,,,,,,,,,,,,,,,,,,,,,,,,
0.0,-4.123452526982874e-05,3.0810015201568604,-0.6395424008369446,6.836137799837161e-06,-0.5066450834274292,-0.3611500859260559,0.00012919303844682872,-0.5236561298370361,-0.2555036246776581,0.0,3.0809640884399414,-0.9566545486450195,-0.9587552398443222,25.0,0.0,3.108859062194824,-1.0410547256469727,-0.9587552398443222,27.75,0.0,3.140687942504883,-1.1186599731445312,-0.5752531439065933,22.0,0.0,2.9854774475097656,-0.4756450653076172,-0.9587552398443222,17.0,0.0,2.783060073852539,0.1308917999267578,-0.3835020959377289,16.75,0.0,3.595590591430664,-1.8160343170166016,0.0,13.75,,,,,,,,,,,,,,,,,,,,,,,,,,,,,,,,,,,,,,,,,,,,,
0.0,-3.083235787926242e-05,3.001131057739258,-0.6517865657806396,3.081680915784091e-05,-0.6367813944816589,-0.3318910002708435,0.00013587459397967905,-0.6391569375991821,-0.19698375463485718,0.0,3.097057342529297,-1.416921615600586,-0.7670041918754578,14.75,0.0,3.061652183532715,-1.1773109436035156,-1.1505062878131866,18.75,0.0,2.9876232147216797,-1.0024309158325195,-1.1505062878131866,17.0,0.0,2.8853416442871094,-0.3701448440551758,-0.5752531439065933,16.5,0.0,2.6900768280029297,0.012159347534179688,-0.5752531439065933,14.75,0.0,2.7583837509155273,-0.04506111145019531,-0.5752531439065933,17.75,0.0,3.377079963684082,-1.6322135925292969,0.0,17.5,0.0,3.688931465148926,-1.6182661056518555,0.0,13.25,,,,,,,,,,,,,,,,,,,,,,,,,,,,,,,,,,,
0.0,-1.9839179003611207e-05,2.9242122173309326,-0.7706388235092163,5.3327137720771134e-05,-0.7409359812736511,-0.49324455857276917,0.00014123179425951093,-0.697443425655365,-0.3108446002006531,0.0,2.842068672180176,-1.341104507446289,-2.3010125756263733,19.75,0.0,3.002643585205078,-1.365065574645996,-0.7670041918754578,19.0,0.0,3.207564353942871,-1.530289649963379,0.19175104796886444,14.5,0.0,3.1528472900390625,-1.35040283203125,0.19175104796886444,17.75,0.0,2.774834632873535,-0.9655952453613281,-0.7670041918754578,18.5,0.0,2.7118921279907227,-0.2868175506591797,-0.7670041918754578,20.25,0.0,2.6636123657226562,-0.18131732940673828,-0.7670041918754578,18.75,,,,,,,,,,,,,,,,,,,,,,,,,,,,,,,,,,,,,,,,
0.0,-1.147083366959123e-05,2.7873270511627197,-0.8991156816482544,7.042933430057019e-05,-0.9276221990585327,-0.6553539633750916,0.00014311370614450425,-0.829666018486023,-0.4140203297138214,0.0,1.8367767333984375,-1.415848731994629,-0.19175104796886444,15.5,0.0,1.9851922988891602,-1.3321638107299805,-0.19175104796886444,18.75,0.0,2.6367902755737305,-1.0324716567993164,-1.342257335782051,21.75,0.0,2.706170082092285,-1.0875463485717773,-1.1505062878131866,24.0,0.0,2.789139747619629,-1.0796785354614258,-1.1505062878131866,16.75,0.0,2.4722814559936523,-0.8919239044189453,-0.7670041918754578,17.25,0.0,1.833200454711914,-1.3933181762695312,0.0,21.0,0.0,1.9140243530273438,-1.3883113861083984,0.0,22.5,,,,,,,,,,,,,,,,,,,,,,,,,,,,,,,,,,,
0.0,-3.9562992242281325e-06,2.6060993671417236,-1.0169239044189453,8.422108658123761e-05,-1.2020763158798218,-0.7588993310928345,0.00014287744124885648,-1.0705170631408691,-0.43863141536712646,0.0,2.2559165954589844,-1.3185739517211914,-1.5340083837509155,20.0,0.0,2.0824670791625977,-1.0492801666259766,-1.9175104796886444,13.75,0.0,2.441883087158203,-1.2871026992797852,-1.342257335782051,22.0,0.0,2.5731325149536133,-1.2516975402832031,-1.1505062878131866,20.0,0.0,2.231597900390625,-0.9984970092773438,-1.9175104796886444,17.75,0.0,1.8628835678100586,-1.3543367385864258,0.0,21.25,0.0,1.9987821578979492,-1.2906789779663086,0.0,23.5,0.0,3.222227096557617,-1.238107681274414,0.0,20.25,0.0,3.1768083572387695,-0.9491443634033203,0.0,19.0,,,,,,,,,,,,,,,,,,,,,,,,,,,,,,
0.0,3.848170763376402e-06,2.4414713382720947,-1.1520907878875732,9.693571337265894e-05,-1.3688442707061768,-0.9092850089073181,0.0001419793552486226,-1.1190418004989624,-0.5337443351745605,0.0,2.262711524963379,-1.2445449829101562,-0.5752531439065933,22.25,0.0,2.3642778396606445,-1.319289207458496,-0.5752531439065933,22.0,0.0,2.433657646179199,-1.4172792434692383,-0.5752531439065933,16.75,0.0,2.071380615234375,-1.0271072387695312,-1.1505062878131866,16.75,0.0,2.169370651245117,-1.1075735092163086,-0.7670041918754578,20.25,0.0,1.8972158432006836,-1.3178586959838867,0.0,21.0,0.0,2.029538154602051,-1.2860298156738281,0.0,23.5,0.0,2.3767948150634766,-0.9008646011352539,0.0,22.25,0.0,3.2029151916503906,-1.2291669845581055,0.0,20.0,0.0,3.2651424407958984,-1.3561248779296875,0.0,16.25,0.0,3.1474828720092773,-1.0249614715576172,0.0,19.5,,,,,,,,,,,,,,,,,,,,
0.0,-1.358910367343924e-06,3.1974360942840576,-0.6816840171813965,2.349813144064683e-07,-0.40415066480636597,-0.3532133102416992,2.5703097890072968e-06,-0.33220964670181274,-0.2715674042701721,0.0,3.2318830490112305,-1.8990039825439453,-0.19175104796886444,15.0,0.0,3.3473968505859375,-1.318216323852539,-0.3835020959377289,19.0,0.0,3.2987594604492188,-0.9984970092773438,-0.5752531439065933,21.5,0.0,3.2079219818115234,-0.6029605865478516,-0.5752531439065933,22.25,0.0,3.113865852355957,-0.37157535552978516,-0.3835020959377289,22.75,0.0,3.0477046966552734,-0.1251697540283203,-0.3835020959377289,19.5,0.0,3.27908992767334,-0.6937980651855469,0.0,22.5,0.0,3.096342086791992,0.02753734588623047,0.0,22.5,,,,,,,,,,,,,,,,,,,,,,,,,,,,,,,,,,,
0.0,-1.0244593795505352e-06,3.1422812938690186,-0.6496266722679138,8.581839665566804e-07,-0.4692285656929016,-0.26221197843551636,2.7939543087995844e-06,-0.37786826491355896,-0.16787700355052948,0.0,3.2683610916137695,-0.8647441864013672,-0.7670041918754578,17.5,0.0,3.1585693359375,-0.5936622619628906,-0.5752531439065933,21.75,0.0,3.001570701599121,-0.4162788391113281,-0.3835020959377289,22.25,0.0,3.070235252380371,-0.4398822784423828,-0.5752531439065933,24.75,0.0,2.9050111770629883,-0.16629695892333984,-0.3835020959377289,15.0,0.0,3.2275915145874023,-0.48279762268066406,0.0,22.75,0.0,3.031611442565918,-0.1684427261352539,0.0,24.25,0.0,3.077387809753418,-0.24819374084472656,0.0,26.5,0.0,2.9418468475341797,-0.034689903259277344,0.0,15.75,,,,,,,,,,,,,,,,,,,,,,,,,,,,,,
0.0,-7.162017254813691e-07,3.068085193634033,-0.6362965703010559,1.3909218523622258e-06,-0.57969069480896,-0.20203512907028198,2.9491247914847918e-06,-0.48351553082466125,-0.09248083084821701,0.0,3.1467676162719727,-1.2423992156982422,-0.9587552398443222,16.5,0.0,3.072023391723633,-0.9849071502685547,-0.9587552398443222,20.25,0.0,3.007650375366211,-0.5171298980712891,-0.7670041918754578,22.25,0.0,2.9200315475463867,-0.11801719665527344,-0.7670041918754578,19.25,0.0,2.9489994049072266,-0.18596649169921875,-0.7670041918754578,24.5,0.0,3.2079219818115234,-0.6079673767089844,0.0,23.0,0.0,3.069162368774414,-0.2346038818359375,0.0,26.75,,,,,,,,,,,,,,,,,,,,,,,,,,,,,,,,,,,,,,,,
0.0,-3.828023125151958e-07,3.015212297439575,-0.7149143218994141,1.909439561131876e-06,-0.5848333239555359,-0.3169371485710144,3.0851033443468623e-06,-0.4053244888782501,-0.19123846292495728,0.0,3.016233444213867,-1.3282299041748047,0.3835020959377289,22.75,0.0,3.113865852355957,-1.3918876647949219,0.3835020959377289,20.0,0.0,3.2629966735839844,-1.3604164123535156,0.3835020959377289,15.25,0.0,2.950429916381836,-0.9173154830932617,-0.9587552398443222,22.5,0.0,2.8055906295776367,-0.3057718276977539,-0.5752531439065933,25.0,0.0,2.8467178344726562,-0.4495382308959961,-0.5752531439065933,25.25,0.0,2.7523040771484375,-0.19240379333496094,-0.7670041918754578,17.5,0.0,1.7788410186767578,-1.4727115631103516,0.0,13.5,0.0,1.8135309219360352,-1.5174150466918945,0.0,14.5,0.0,3.183603286743164,-0.7224082946777344,0.0,21.5,0.0,2.736210823059082,-0.20706653594970703,0.0,13.0,0.0,2.9801130294799805,-0.2206563949584961,0.0,26.0,0.0,3.057718276977539,-0.27823448181152344,0.0,26.25,0.0,2.8792619705200195,-0.07295608520507812,0.0,21.5,,,,,
0.0,-1.4471572740148986e-07,2.8877830505371094,-0.8541461229324341,2.2444994556281017e-06,-0.8098839521408081,-0.48974138498306274,3.09978645418596e-06,-0.6583666801452637,-0.2945171594619751,0.0,1.7627477645874023,-1.2878179550170898,-0.19175104796886444,17.25,0.0,2.8427839279174805,-1.4437437057495117,-1.72575943171978,17.5,0.0,2.9990673065185547,-1.6086101531982422,-2.109261527657509,15.0,0.0,3.1903982162475586,-1.611471176147461,-0.3835020959377289,12.25,0.0,2.808094024658203,-1.1301040649414062,-1.5340083837509155,22.0,0.0,2.606034278869629,-0.7821321487426758,-0.9587552398443222,19.5,0.0,2.786993980407715,-0.928044319152832,-0.5752531439065933,26.5,0.0,2.743363380432129,-0.7431507110595703,-0.9587552398443222,25.5,0.0,1.807093620300293,-1.5120506286621094,0.0,14.5,0.0,3.1310319900512695,-0.9745359420776367,0.0,18.75,0.0,2.970099449157715,-0.3161430358886719,0.0,26.25,0.0,3.0448436737060547,-0.37658214569091797,0.0,26.0,0.0,2.876400947570801,-0.2052783966064453,0.0,22.0,,,,,,,,,,
0.0,6.6186274239044e-08,2.7443904876708984,-1.0647175312042236,2.516334689062205e-06,-0.9758262038230896,-0.7954277992248535,3.0767705538892187e-06,-0.748066782951355,-0.532982349395752,0.0,1.8543004989624023,-1.432657241821289,-0.19175104796886444,18.0,0.0,1.9751787185668945,-1.3922452926635742,-0.19175104796886444,22.0,0.0,2.8166770935058594,-1.5413761138916016,-0.9587552398443222,17.25,0.0,2.986907958984375,-1.6214847564697266,0.19175104796886444,14.5,0.0,2.2687911987304688,-1.2091398239135742,-0.19175104796886444,20.75,0.0,2.7587413787841797,-1.3325214385986328,-0.9587552398443222,20.0,0.0,2.5953054428100586,-1.031041145324707,-1.9175104796886444,21.5,0.0,2.6950836181640625,-1.2055635452270508,-0.19175104796886444,23.25,0.0,1.8249750137329102,-1.4348030090332031,0.0,22.75,0.0,2.075314521789551,-1.4358758926391602,0.0,16.0,0.0,3.2930374145507812,-1.685500144958496,0.0,13.25,0.0,3.1081438064575195,-1.0063648223876953,0.0,18.75,0.0,2.957582473754883,-0.3973245620727539,0.0,26.25,0.0,3.035902976989746,-0.4284381866455078,0.0,24.5,0.0,2.869248390197754,-0.2639293670654297,0.0,22.25
0.0,2.6319676749153587e-07,2.5996859073638916,-1.2458686828613281,2.7441428755992092e-06,-1.0696369409561157,-1.062452793121338,3.030626658073743e-06,-0.7001633644104004,-0.7564401626586914,0.0,1.911163330078125,-1.3575553894042969,-0.19175104796886444,16.75,0.0,2.0395517349243164,-1.3185739517211914,0.19175104796886444,21.5,0.0,2.2519826889038086,-1.2423992156982422,0.19175104796886444,21.25,0.0,2.4493932723999023,-1.237034797668457,0.19175104796886444,21.75,0.0,2.5992393493652344,-1.237034797668457,-0.3835020959377289,19.75,0.0,2.721548080444336,-1.2742280960083008,0.19175104796886444,14.25,0.0,1.8235445022583008,-1.386880874633789,0.0,22.25,0.0,1.841425895690918,-1.408696174621582,0.0,22.75,0.0,2.397894859313965,-0.9816884994506836,0.0,15.5,0.0,3.0956268310546875,-1.0077953338623047,0.0,18.75,0.0,2.9343366622924805,-0.5117654800415039,0.0,25.5,0.0,3.019094467163086,-0.5875825881958008,0.0,22.5,0.0,2.8510093688964844,-0.3361701965332031,0.0,22.25,,,,,,,,,,
0.0,4.202122170227085e-07,2.4490573406219482,-1.302666187286377,2.8713029678328894e-06,-1.2199113368988037,-1.0247656106948853,2.9172022095735883e-06,-0.8001968860626221,-0.6371933221817017,0.0,1.9980669021606445,-1.1619329452514648,0.19175104796886444,21.0,0.0,2.11179256439209,-1.1962652206420898,-0.5752531439065933,23.5,0.0,2.288818359375,-1.1801719665527344,-0.7670041918754578,24.75,0.0,2.3828744888305664,-1.2359619140625,-2.3010125756263733,24.25,0.0,2.4837255477905273,-1.2688636779785156,-2.3010125756263733,16.5,0.0,1.85394287109375,-1.4144182205200195,0.0,24.0,0.0,1.8306970596313477,-1.3654232025146484,0.0,23.5,0.0,2.1811723709106445,-1.313924789428711,0.0,18.75,0.0,3.0176639556884766,-0.5793571472167969,0.0,21.25,,,,,,,,,,,,,,,,,,,,,,,,,,,,,,
0.0,5.215292731008958e-07,2.3087799549102783,-1.3621013164520264,2.8997919798712246e-06,-1.3246678113937378,-0.9999894499778748,2.7481003144202987e-06,-0.8305525779724121,-0.5526114106178284,0.0,1.944422721862793,-1.175522804260254,-0.5752531439065933,21.75,0.0,2.001643180847168,-1.223444938659668,-0.5752531439065933,22.5,0.0,2.1539926528930664,-1.2538433074951172,-0.7670041918754578,19.25,0.0,2.531290054321289,-1.4297962188720703,-0.19175104796886444,12.5,0.0,2.402186393737793,-1.2416839599609375,-1.5340083837509155,16.25,0.0,2.759099006652832,-1.3854503631591797,-0.7670041918754578,12.25,0.0,1.8128156661987305,-1.374363899230957,0.0,24.75,0.0,1.8650293350219727,-1.4001131057739258,0.0,24.5,,,,,,,,,,,,,,,,,,,,,,,,,,,,,,,,,,,
0.0,6.598526738343935e-07,2.1761856079101562,-1.4116837978363037,2.958497134386562e-06,-1.3851171731948853,-0.9688149094581604,2.60959632214508e-06,-0.7972800135612488,-0.484387069940567,0.0,1.8750429153442383,-1.210927963256836,0.19175104796886444,20.75,0.0,2.0470619201660156,-1.1354684829711914,0.19175104796886444,19.25,0.0,2.2104978561401367,-1.1698007583618164,-1.1505062878131866,17.0,0.0,2.326369285583496,-1.2509822845458984,-1.1505062878131866,13.25,0.0,2.173304557800293,-1.2742280960083008,0.0,20.25,0.0,3.018021583557129,-1.25885009765625,0.0,17.5,,,,,,,,,,,,,,,,,,,,,,,,,,,,,,,,,,,,,,,,,,,,,
0.0,8.124215469251794e-07,2.0359349250793457,-1.471528172492981,3.016677055711625e-06,-1.435402512550354,-0.9692318439483643,2.480806415405823e-06,-0.7448931932449341,-0.4632546305656433,0.0,1.8339157104492188,-1.1512041091918945,0.19175104796886444,12.75,0.0,1.8450021743774414,-1.157999038696289,0.19175104796886444,21.0,0.0,1.9315481185913086,-1.1926889419555664,0.19175104796886444,15.75,0.0,2.1353960037231445,-1.3260841369628906,0.0,20.25,0.0,2.9779672622680664,-1.3425350189208984,0.0,16.75,,,,,,,,,,,,,,,,,,,,,,,,,,,,,,,,,,,,,,,,,,,,,,,,,,
0.0,1.0007072148709995e-07,3.1858365535736084,-0.3420611321926117,2.3302638396671682e-07,-0.46159496903419495,0.3580765128135681,1.3817614785693877e-07,-0.636405885219574,0.021751996129751205,0.0,3.2300949096679688,-1.524209976196289,-0.7670041918754578,15.0,0.0,3.244757652282715,-1.1576414108276367,-0.7670041918754578,18.75,0.0,3.1932592391967773,-0.6973743438720703,-0.7670041918754578,18.5,0.0,3.0477046966552734,0.0457763671875,-0.3835020959377289,21.5,0.0,2.9271841049194336,0.102996826171875,-0.3835020959377289,15.25,0.0,2.9811859130859375,0.14841556549072266,-0.3835020959377289,22.25,0.0,3.3860206604003906,-1.5485286712646484,0.0,17.75,,,,,,,,,,,,,,,,,,,,,,,,,,,,,,,,,,,,,,,,
0.0,9.168433479089799e-08,3.134171962738037,-0.3664623200893402,2.0764431951647566e-07,-0.5206303596496582,0.2619340121746063,1.1409521505356679e-07,-0.6222579479217529,-0.06099022552371025,0.0,3.108501434326172,-1.0685920715332031,-0.5752531439065933,21.0,0.0,3.2404661178588867,-1.1276006698608398,-0.5752531439065933,19.0,0.0,3.3484697341918945,-1.233816146850586,-0.3835020959377289,14.25,0.0,3.0069351196289062,-0.20635128021240234,-0.3835020959377289,22.0,0.0,2.887845039367676,0.0711679458618164,-0.3835020959377289,22.0,0.0,2.923250198364258,0.012159347534179688,-0.5752531439065933,25.75,0.0,3.2358169555664062,-1.8796920776367188,0.0,17.75,0.0,3.5669803619384766,-1.8721818923950195,0.0,12.25,,,,,,,,,,,,,,,,,,,,,,,,,,,,,,,,,,,
0.0,9.146825874495335e-08,3.0589513778686523,-0.386293888092041,1.9268297535290912e-07,-0.6236764788627625,0.18049795925617218,9.770792530616745e-08,-0.668632447719574,-0.1233731210231781,0.0,3.0916929244995117,-1.7927885055541992,-0.9587552398443222,15.5,0.0,3.117084503173828,-1.4748573303222656,-0.9587552398443222,19.5,0.0,3.0080080032348633,-1.3328790664672852,-0.7670041918754578,20.0,0.0,2.990126609802246,-0.4674196243286133,-0.7670041918754578,20.25,0.0,2.8867721557617188,-0.1913309097290039,-0.7670041918754578,19.25,0.0,2.923250198364258,-0.25284290313720703,-0.7670041918754578,23.5,0.0,3.2912492752075195,-1.8063783645629883,0.0,18.25,,,,,,,,,,,,,,,,,,,,,,,,,,,,,,,,,,,,,,,,
0.0,8.421079655818176e-08,2.9640769958496094,-0.47370409965515137,1.6939728197939985e-07,-0.738457441329956,-0.006070643663406372,7.718254835253902e-08,-0.7121213674545288,-0.26977697014808655,0.0,1.6994476318359375,-1.3511180877685547,-0.19175104796886444,12.75,0.0,3.0634403228759766,-1.4834403991699219,-1.1505062878131866,15.25,0.0,2.979755401611328,-1.2509822845458984,-1.1505062878131866,17.0,0.0,2.8524398803710938,-1.0567903518676758,-0.3835020959377289,20.5,0.0,2.6793479919433594,-0.6008148193359375,-0.7670041918754578,18.75,0.0,2.845644950866699,-0.4706382751464844,-0.7670041918754578,25.75,0.0,2.8009414672851562,-0.3701448440551758,-0.7670041918754578,26.0,0.0,1.7348527908325195,-1.4176368713378906,0.0,15.75,0.0,1.8814802169799805,-1.4634132385253906,0.0,12.25,0.0,3.185749053955078,-1.9404888153076172,0.0,13.75,0.0,2.3910999298095703,-1.136183738708496,0.0,16.5,,,,,,,,,,,,,,,,,,,,
0.0,7.150781300424569e-08,2.814652442932129,-0.5663068890571594,1.3975892443340854e-07,-0.9794580936431885,-0.17635878920555115,5.358210586337009e-08,-0.9257067441940308,-0.3796902894973755,0.0,2.9668807983398438,-1.6558170318603516,-0.19175104796886444,13.75,0.0,2.9211044311523438,-1.2999773025512695,-1.5340083837509155,15.75,0.0,2.833843231201172,-1.0335445404052734,-1.5340083837509155,21.5,0.0,2.6482343673706055,-0.6215572357177734,-1.342257335782051,30.5,0.0,2.722620964050293,-0.8107423782348633,-1.342257335782051,26.5,0.0,2.5359392166137695,-0.44846534729003906,-1.342257335782051,21.0,0.0,2.5985240936279297,-0.5629062652587891,-1.342257335782051,29.0,0.0,1.8131732940673828,-1.4008283615112305,0.0,16.25,0.0,2.1393299102783203,-1.178741455078125,0.0,17.75,0.0,3.28981876373291,-1.773834228515625,0.0,14.0,0.0,2.533435821533203,-0.7488727569580078,0.0,20.5,,,,,,,,,,,,,,,,,,,,
0.0,5.740792374808734e-08,2.7104756832122803,-0.8561005592346191,1.1057122861757307e-07,-0.991195559501648,-0.6957550048828125,3.237628121155467e-08,-0.7526743412017822,-0.8134170770645142,0.0,2.0999908447265625,-1.0625123977661133,0.19175104796886444,22.25,0.0,2.8241872787475586,-1.3532638549804688,0.7670041918754578,18.75,0.0,2.892136573791504,-1.46484375,0.7670041918754578,18.75,0.0,2.992987632751465,-1.534581184387207,0.19175104796886444,15.0,0.0,2.2312402725219727,-0.9877681732177734,-1.1505062878131866,27.0,0.0,2.3267269134521484,-0.9520053863525391,-1.1505062878131866,27.5,0.0,2.6929378509521484,-1.122593879699707,0.7670041918754578,17.5,0.0,2.4930238723754883,-0.9033679962158203,-0.9587552398443222,22.5,0.0,1.8328428268432617,-1.385807991027832,0.0,22.5,0.0,2.3478269577026367,-1.003861427307129,0.0,22.25,,,,,,,,,,,,,,,,,,,,,,,,,
0.0,4.631933592236237e-08,2.6164557933807373,-1.0622186660766602,8.575490539897146e-08,-1.020963430404663,-1.0282737016677856,1.4651430291223733e-08,-0.6701036691665649,-1.0504168272018433,0.0,2.1092891693115234,-1.0532140731811523,-0.5752531439065933,18.75,0.0,2.6350021362304688,-1.2302398681640625,-0.9587552398443222,13.0,0.0,2.8438568115234375,-1.4115571975708008,-0.9587552398443222,13.5,0.0,2.941131591796875,-1.57928466796875,0.19175104796886444,17.25,0.0,3.059506416320801,-1.571059226989746,0.19175104796886444,18.25,0.0,3.1957626342773438,-1.5338659286499023,0.19175104796886444,14.25,0.0,2.2448301315307617,-0.9577274322509766,-0.3835020959377289,24.5,0.0,2.31170654296875,-0.9262561798095703,-0.3835020959377289,24.0,0.0,2.4236440658569336,-1.010298728942871,-0.3835020959377289,17.75,0.0,2.257704734802246,-1.1208057403564453,0.0,24.5,,,,,,,,,,,,,,,,,,,,,,,,,
0.0,4.097981332051859e-08,2.5056707859039307,-1.1604483127593994,6.898182647319118e-08,-1.096583604812622,-1.115296721458435,2.7720234996309046e-09,-0.678935170173645,-1.0337220430374146,0.0,2.3703575134277344,-1.3371706008911133,-0.7670041918754578,16.0,0.0,2.554178237915039,-1.5091896057128906,-0.3835020959377289,14.0,0.0,2.7773380279541016,-1.445174217224121,-0.3835020959377289,17.0,0.0,2.8427839279174805,-1.53350830078125,-0.9587552398443222,16.0,0.0,2.3320913314819336,-0.9334087371826172,-0.3835020959377289,18.25,0.0,2.1665096282958984,-0.7531642913818359,-0.5752531439065933,17.75,0.0,2.257704734802246,-0.7685422897338867,-0.3835020959377289,19.75,0.0,2.2630691528320312,-1.089334487915039,0.0,25.25,,,,,,,,,,,,,,,,,,,,,,,,,,,,,,,,,,,
0.0,3.545823901163203e-08,2.387176752090454,-1.2433805465698242,5.2510412018591524e-08,-1.1984243392944336,-1.1308599710464478,-8.41420888519906e-09,-0.7431138753890991,-0.9323930740356445,0.0,2.2727251052856445,-1.381516456604004,-0.7670041918754578,20.75,0.0,2.342820167541504,-1.385807991027832,-0.7670041918754578,23.25,0.0,2.441883087158203,-1.4727115631103516,-0.9587552398443222,16.5,0.0,2.7108192443847656,-1.4308691024780273,-1.1505062878131866,15.25,0.0,2.896428108215332,-1.4297962188720703,-1.1505062878131866,12.5,0.0,2.0842552185058594,-0.8454322814941406,-0.5752531439065933,18.25,0.0,2.2569894790649414,-0.7853507995605469,-0.5752531439065933,15.0,0.0,2.3027658462524414,-1.0389089584350586,0.0,25.0,,,,,,,,,,,,,,,,,,,,,,,,,,,,,,,,,,,
0.0,3.232370104910842e-08,2.2636501789093018,-1.324631929397583,4.024938249358456e-08,-1.271223783493042,-1.1515215635299683,-1.6070636377207848e-08,-0.745234489440918,-0.8620583415031433,0.0,2.143979072570801,-1.165151596069336,-0.7670041918754578,21.25,0.0,2.2194385528564453,-1.2320280075073242,-0.7670041918754578,22.0,0.0,2.3224353790283203,-1.3321638107299805,-0.7670041918754578,18.0,0.0,2.457261085510254,-1.427292823791504,-0.3835020959377289,13.25,0.0,2.057790756225586,-1.0017156600952148,-0.19175104796886444,16.5,,,,,,,,,,,,,,,,,,,,,,,,,,,,,,,,,,,,,,,,,,,,,,,,,,
0.0,2.9792165179287622e-08,2.149287462234497,-1.4316105842590332,2.9782945887291135e-08,-1.2858843803405762,-1.2446171045303345,-2.192664716460513e-08,-0.6534953117370605,-0.8956348896026611,0.0,1.9326210021972656,-1.1930465698242188,0.3835020959377289,21.0,0.0,2.087116241455078,-1.1551380157470703,0.3835020959377289,22.5,0.0,2.190113067626953,-1.226663589477539,-0.19175104796886444,21.5,0.0,2.2319555282592773,-1.4172792434692383,-0.19175104796886444,16.5,0.0,2.5534629821777344,-0.8357763290405273,0.0,21.75,,,,,,,,,,,,,,,,,,,,,,,,,,,,,,,,,,,,,,,,,,,,,,,,,,
0.0,2.7628333398865834e-08,2.0235350131988525,-1.5141507387161255,2.061674209130615e-08,-1.3337069749832153,-1.2464512586593628,-2.6592850588258443e-08,-0.6364597678184509,-0.8144890069961548,0.0,1.9533634185791016,-1.3089179992675781,-0.5752531439065933,22.75,0.0,2.010226249694824,-1.383662223815918,-0.3835020959377289,18.5,0.0,1.9229650497436523,-1.226663589477539,-0.19175104796886444,20.75,0.0,2.2280216217041016,-1.1408329010009766,0.0,26.25,0.0,2.3810863494873047,-1.224517822265625,0.0,21.0,,,,,,,,,,,,,,,,,,,,,,,,,,,,,,,,,,,,,,,,,,,,,,,,,,
0.0,2.3226782275287405e-08,1.9383208751678467,-1.559557318687439,9.26969967451896e-09,-1.2923290729522705,-1.1798326969146729,-3.2316641807028645e-08,-0.5298752784729004,-0.6880264282226562,0.0,1.980900764465332,-1.2935400009155273,-0.19175104796886444,26.25,0.0,2.0284652709960938,-1.3443231582641602,-0.19175104796886444,22.75,0.0,2.100348472595215,-1.4516115188598633,-0.19175104796886444,13.25,0.0,1.9530057907104492,-1.2434720993041992,-0.3835020959377289,23.5,,,,,,,,,,,,,,,,,,,,,,,,,,,,,,,,,,,,,,,,,,,,,,,,,,,,,,,
0.0,1.8722275285654177e-08,1.9271411895751953,-1.581079125404358,-1.0421343787925252e-09,-1.1003731489181519,-1.1004595756530762,-3.6849602480515387e-08,-0.26966220140457153,-0.5916169285774231,0.0,2.0846128463745117,-1.177668571472168,0.19175104796886444,25.0,0.0,2.1053552627563477,-1.2667179107666016,0.19175104796886444,21.0,0.0,2.2891759872436523,-1.283884048461914,0.19175104796886444,15.0,0.0,2.086043357849121,-1.099705696105957,0.19175104796886444,19.75,0.0,2.0656585693359375,-1.1680126190185547,0.0,28.75,0.0,2.13468074798584,-1.2502670288085938,0.0,25.0,0.0,2.283811569213867,-1.3997554779052734,0.0,20.0,,,,,,,,,,,,,,,,,,,,,,,,,,,,,,,,,,,,,,,,
0.0,1.420719542011284e-08,1.8953723907470703,-1.563478946685791,-1.035100538615552e-08,-0.9662467837333679,-0.9372228384017944,-4.044777313083614e-08,-0.11024819314479828,-0.40477538108825684,0.0,1.8117427825927734,-1.1587142944335938,0.19175104796886444,12.5,0.0,1.8929243087768555,-1.143336296081543,-0.3835020959377289,21.75,0.0,2.006649971008301,-1.1086463928222656,-0.3835020959377289,20.0,0.0,2.0467042922973633,-1.2831687927246094,0.19175104796886444,14.0,0.0,2.118229866027832,-1.272439956665039,0.0,26.0,0.0,2.292037010192871,-1.3664960861206055,0.0,19.75,0.0,2.4840831756591797,-1.4955997467041016,0.0,14.5,,,,,,,,,,,,,,,,,,,,,,,,,,,,,,,,,,,,,,,,
0.0,8.291845682295573e-11,3.0590121746063232,-0.8001098036766052,1.0634469693737714e-10,-0.5917196869850159,-0.6914510726928711,-2.5756934779463947e-11,-0.5952630043029785,-0.6690601110458374,0.0,3.1489133834838867,-1.6304254531860352,-0.5752531439065933,15.25,0.0,3.1278133392333984,-1.2917518615722656,-0.3835020959377289,18.75,0.0,3.013730049133301,-0.939488410949707,-0.9587552398443222,23.5,0.0,3.0813217163085938,-1.0474920272827148,-0.9587552398443222,24.25,0.0,2.9278993606567383,-0.6297826766967773,-0.5752531439065933,20.0,0.0,2.834916114807129,-0.44167041778564453,-0.3835020959377289,17.0,0.0,3.2712221145629883,-0.5364418029785156,0.0,22.0,0.0,3.117799758911133,0.043272972106933594,0.0,22.25,,,,,,,,,,,,,,,,,,,,,,,,,,,,,,,,,,,
0.0,7.047185057729166e-11,2.9807844161987305,-0.975048303604126,7.445698224639585e-11,-0.6992514133453369,-0.9278525114059448,-4.43149579532065e-11,-0.6607339978218079,-0.8066816329956055,0.0,2.832770347595215,-1.3697147369384766,-1.5340083837509155,20.5,0.0,2.761960029602051,-1.1647939682006836,-0.9587552398443222,19.5,0.0,3.018021583557129,-1.3185739517211914,0.19175104796886444,20.75,0.0,3.111720085144043,-1.3564825057983398,0.19175104796886444,19.25,0.0,3.230452537536621,-1.3890266418457031,0.19175104796886444,13.25,0.0,2.7676820755004883,-0.7309913635253906,-0.7670041918754578,15.25,0.0,1.80816650390625,-1.3382434844970703,0.0,12.75,0.0,3.254413604736328,-0.6555318832397461,0.0,21.25,0.0,3.129243850708008,-0.29218196868896484,0.0,20.75,,,,,,,,,,,,,,,,,,,,,,,,,,,,,,
0.0,5.62379795510104e-11,2.75632643699646,-1.168299674987793,4.190661706537924e-11,-1.0643775463104248,-1.1500682830810547,-6.26753093868615e-11,-1.0156817436218262,-0.8946936726570129,0.0,1.8110275268554688,-1.3883113861083984,-0.19175104796886444,23.5,0.0,1.8614530563354492,-1.450181007385254,-0.19175104796886444,24.25,0.0,2.1572113037109375,-1.3382434844970703,-0.19175104796886444,22.0,0.0,2.4619102478027344,-1.2291669845581055,-1.5340083837509155,21.25,0.0,2.6460886001586914,-1.2001991271972656,-1.5340083837509155,18.25,0.0,2.7451515197753906,-1.2981891632080078,-1.9175104796886444,16.5,0.0,2.868175506591797,-1.3908147811889648,-1.72575943171978,13.5,0.0,3.0040740966796875,-0.857234001159668,0.0,13.25,,,,,,,,,,,,,,,,,,,,,,,,,,,,,,,,,,,
0.0,4.288580254807606e-11,2.591862201690674,-1.2710264921188354,1.2997885753818217e-11,-1.269641637802124,-1.1920987367630005,-7.731226769891464e-11,-1.1430974006652832,-0.8336074948310852,0.0,1.851797103881836,-1.394033432006836,0.19175104796886444,17.0,0.0,2.172231674194336,-1.2166500091552734,-0.5752531439065933,20.25,0.0,2.801656723022461,-1.5614032745361328,-1.9175104796886444,12.5,0.0,2.4243593215942383,-1.0993480682373047,-0.7670041918754578,25.75,0.0,2.4590492248535156,-1.232743263244629,-0.7670041918754578,28.75,0.0,2.536654472351074,-1.2631416320800781,-0.7670041918754578,24.75,0.0,2.6628971099853516,-1.3314485549926758,-1.9175104796886444,17.75,,,,,,,,,,,,,,,,,,,,,,,,,,,,,,,,,,,,,,,,
0.0,-1.441787983778544e-16,3.28342342376709,-0.3821839690208435,-4.477456393251226e-16,-0.3313237130641937,0.3001197278499603,-2.771759942283436e-16,-0.24383772909641266,-0.06752507388591766,0.0,3.1467676162719727,-1.088261604309082,-0.3835020959377289,17.0,0.0,3.268718719482422,-1.1740922927856445,-0.3835020959377289,19.5,0.0,3.3506155014038086,-1.1916160583496094,-0.7670041918754578,15.5,0.0,3.0112266540527344,-0.2181529998779297,-0.3835020959377289,17.5,0.0,3.0727386474609375,-0.21028518676757812,-0.3835020959377289,18.25,0.0,3.3742189407348633,-0.8525848388671875,0.0,23.0,,,,,,,,,,,,,,,,,,,,,,,,,,,,,,,,,,,,,,,,,,,,,
0.0,-1.44390953661362e-16,3.224221706390381,-0.43830183148384094,-4.196812672606603e-16,-0.40397340059280396,0.14726746082305908,-2.4355318020576175e-16,-0.300970196723938,-0.18682295083999634,0.0,3.2165050506591797,-1.4694929122924805,-0.5752531439065933,15.25,0.0,3.116011619567871,-1.3064146041870117,-0.3835020959377289,23.0,0.0,3.1174421310424805,-1.1254549026489258,-0.7670041918754578,25.0,0.0,3.1342506408691406,-0.5536079406738281,-0.5752531439065933,20.5,0.0,2.9032230377197266,0.048279762268066406,-0.3835020959377289,12.75,0.0,2.993345260620117,0.026106834411621094,-0.3835020959377289,18.25,0.0,2.930760383605957,-0.08440017700195312,0.0,12.75,0.0,3.049492835998535,-0.0711679458618164,0.0,20.25,0.0,3.1435489654541016,0.04184246063232422,0.0,24.0,,,,,,,,,,,,,,,,,,,,,,,,,,,,,,
0.0,-1.3525021084595702e-16,3.153042793273926,-0.5744046568870544,-3.7940064192376166e-16,-0.5140248537063599,-0.12141880393028259,-2.0413895045989604e-16,-0.4121065139770508,-0.3869393467903137,0.0,3.1006336212158203,-1.0875463485717773,-0.9587552398443222,19.25,0.0,3.228306770324707,-1.123666763305664,-0.9587552398443222,18.25,0.0,3.3617019653320312,-1.1379718780517578,-0.7670041918754578,12.5,0.0,2.997279167175293,-0.8525848388671875,-0.5752531439065933,19.0,0.0,2.868533134460449,-0.5003213882446289,-0.3835020959377289,12.25,0.0,2.936840057373047,-0.5922317504882812,-0.3835020959377289,18.25,0.0,2.9332637786865234,-0.12695789337158203,0.0,13.25,0.0,3.031611442565918,-0.1569986343383789,0.0,21.25,,,,,,,,,,,,,,,,,,,,,,,,,,,,,,,,,,,
0.0,-1.3306882307409138e-16,3.065091371536255,-0.7193467617034912,-3.48142664480575e-16,-0.6446480751037598,-0.3745483160018921,-1.723085905026023e-16,-0.5345863699913025,-0.5546092987060547,0.0,2.922534942626953,-1.1826753616333008,-0.9587552398443222,20.5,0.0,3.016233444213867,-1.2180805206298828,-0.9587552398443222,21.5,0.0,3.0924081802368164,-1.301407814025879,-0.9587552398443222,16.25,0.0,2.855658531188965,-0.9416341781616211,-0.3835020959377289,17.5,0.0,2.7980804443359375,-0.6322860717773438,-0.5752531439065933,13.0,0.0,2.8853416442871094,-0.3218650817871094,0.0,16.25,,,,,,,,,,,,,,,,,,,,,,,,,,,,,,,,,,,,,,,,,,,,,
0.0,-1.157432802987069e-16,2.9358839988708496,-0.86969393491745,-2.971474429378239e-16,-0.8806084394454956,-0.5878303050994873,-1.2957534156225942e-16,-0.8019149899482727,-0.6541892290115356,0.0,1.8460750579833984,-1.523137092590332,-0.19175104796886444,12.5,0.0,3.1331777572631836,-1.7309188842773438,-0.19175104796886444,12.25,0.0,2.9414892196655273,-1.3457536697387695,-1.5340083837509155,15.5,0.0,3.072381019592285,-1.5041828155517578,-1.1505062878131866,15.5,0.0,2.735137939453125,-1.055002212524414,-0.9587552398443222,23.5,0.0,2.7898550033569336,-1.2238025665283203,-1.5340083837509155,20.25,0.0,2.718687057495117,-0.8482933044433594,-0.9587552398443222,21.75,0.0,2.6285648345947266,-0.743865966796875,-0.9587552398443222,13.75,0.0,1.8364191055297852,-1.4362335205078125,0.0,17.0,0.0,1.8743276596069336,-1.4905929565429688,0.0,20.25,0.0,1.9315481185913086,-1.543879508972168,0.0,18.25,,,,,,,,,,,,,,,,,,,,
0.0,-1.0669459937675662e-16,2.7795400619506836,-0.9910261631011963,-2.589676445985731e-16,-1.104319453239441,-0.7361279726028442,-9.747780888455596e-17,-0.9904890656471252,-0.7010295391082764,0.0,2.3227930068969727,-1.0639429092407227,-1.342257335782051,14.25,0.0,2.5777816772460938,-1.2527704238891602,-1.1505062878131866,26.75,0.0,2.6503801345825195,-1.3718605041503906,-0.5752531439065933,20.25,0.0,2.8520822525024414,-1.3782978057861328,-0.3835020959377289,13.25,0.0,2.5005340576171875,-1.0306835174560547,-1.342257335782051,23.75,0.0,2.5588274002075195,-1.090407371520996,-1.342257335782051,28.25,0.0,2.1872520446777344,-1.3457536697387695,0.0,18.75,,,,,,,,,,,,,,,,,,,,,,,,,,,,,,,,,,,,,,,,
0.0,-1.0130921683767298e-16,2.639308214187622,-1.069626808166504,-2.275009529432271e-16,-1.249415397644043,-0.8050203323364258,-7.179844337154535e-17,-1.046018123626709,-0.6937817335128784,0.0,2.513766288757324,-1.1419057846069336,-0.5752531439065933,29.25,0.0,2.5463104248046875,-1.1973381042480469,-0.5752531439065933,26.5,0.0,2.637505531311035,-1.3246536254882812,-1.72575943171978,14.5,0.0,2.492666244506836,-0.9677410125732422,-1.1505062878131866,25.75,0.0,2.395749092102051,-0.8625984191894531,-1.1505062878131866,18.25,0.0,1.9043684005737305,-1.4383792877197266,0.0,22.25,0.0,1.9097328186035156,-1.4423131942749023,0.0,22.0,,,,,,,,,,,,,,,,,,,,,,,,,,,,,,,,,,,,,,,,
0.0,-9.372763668503655e-17,2.5110912322998047,-1.1656522750854492,-1.9496869384023517e-16,-1.3334975242614746,-0.9104263782501221,-4.728957151252177e-17,-1.0049327611923218,-0.7380422353744507,0.0,2.437591552734375,-1.3310909271240234,-0.7670041918754578,19.25,0.0,2.6192665100097656,-1.4691352844238281,-0.7670041918754578,15.25,0.0,2.58636474609375,-1.3425350189208984,-0.7670041918754578,21.0,0.0,2.326369285583496,-0.7642507553100586,-0.5752531439065933,18.5,0.0,2.39717960357666,-0.8679628372192383,-0.5752531439065933,18.5,,,,,,,,,,,,,,,,,,,,,,,,,,,,,,,,,,,,,,,,,,,,,,,,,,
0.0,-8.118405150060073e-17,2.4033946990966797,-1.2619141340255737,-1.5818962329794699e-16,-1.3271853923797607,-1.0398313999176025,-2.2033909415956742e-17,-0.8335814476013184,-0.8358216881752014,0.0,2.3249387741088867,-1.147627830505371,-0.3835020959377289,20.75,0.0,2.4422407150268555,-1.2538433074951172,-0.7670041918754578,20.75,0.0,2.5981664657592773,-1.291036605834961,0.19175104796886444,18.75,0.0,2.1060705184936523,-0.904083251953125,-0.19175104796886444,16.0,0.0,2.2677183151245117,-0.8797645568847656,-0.3835020959377289,18.25,0.0,2.763032913208008,-1.2456178665161133,-0.3835020959377289,15.25,,,,,,,,,,,,,,,,,,,,,,,,,,,,,,,,,,,,,,,,,,,,,
0.0,-7.038728648141968e-17,2.302654504776001,-1.3836541175842285,-1.2571369188594747e-16,-1.2895241975784302,-1.215999960899353,-8.82765495355366e-19,-0.6391427516937256,-0.9818652868270874,0.0,2.2101402282714844,-1.3082027435302734,-0.5752531439065933,20.75,0.0,2.4118423461914062,-1.3225078582763672,0.19175104796886444,20.75,0.0,2.063870429992676,-1.0099411010742188,-0.5752531439065933,16.75,0.0,2.127528190612793,-1.1483430862426758,-0.5752531439065933,20.0,0.0,2.578854560852051,-1.306772232055664,0.7670041918754578,18.75,0.0,2.6918649673461914,-1.3074874877929688,0.7670041918754578,15.5,,,,,,,,,,,,,,,,,,,,,,,,,,,,,,,,,,,,,,,,,,,,,
0.0,-6.322980513756164e-17,2.213463544845581,-1.4032411575317383,-9.942749344067815e-17,-1.2601823806762695,-1.1228375434875488,1.5790260816900334e-17,-0.5453662872314453,-0.8123223781585693,0.0,2.06601619720459,-1.0471343994140625,-0.19175104796886444,20.75,0.0,2.1393299102783203,-1.0703802108764648,-0.7670041918754578,24.0,0.0,2.2194385528564453,-1.1322498321533203,-0.5752531439065933,22.0,0.0,2.3946762084960938,-1.1529922485351562,-0.5752531439065933,17.5,0.0,2.5670528411865234,-1.2263059616088867,-0.5752531439065933,12.5,,,,,,,,,,,,,,,,,,,,,,,,,,,,,,,,,,,,,,,,,,,,,,,,,,
0.0,-5.849900701313817e-17,2.129666566848755,-1.4552048444747925,-7.837786443357173e-17,-1.202031135559082,-1.118150234222412,2.797612181927025e-17,-0.406205952167511,-0.7640456557273865,0.0,1.9479990005493164,-1.175522804260254,0.3835020959377289,17.25,0.0,2.0606517791748047,-1.164078712463379,0.3835020959377289,18.0,0.0,2.256631851196289,-1.1179447174072266,-0.7670041918754578,16.0,0.0,2.457261085510254,-1.041412353515625,-0.7670041918754578,14.0,0.0,3.0341148376464844,-1.567840576171875,0.0,13.0,,,,,,,,,,,,,,,,,,,,,,,,,,,,,,,,,,,,,,,,,,,,,,,,,,
0.0,-4.7300268302010576e-20,3.1763339042663574,-0.48367029428482056,3.0996137762981195e-21,-0.37582001090049744,-0.5261756181716919,8.479769025048911e-20,-0.43990057706832886,-0.5483861565589905,0.0,3.2254457473754883,-0.8904933929443359,-0.3835020959377289,22.75,0.0,3.274083137512207,-0.812530517578125,-0.3835020959377289,21.0,0.0,2.914309501647949,0.044345855712890625,-0.5752531439065933,16.25,0.0,2.95257568359375,0.02396106719970703,-0.3835020959377289,22.0,0.0,3.0519962310791016,0.1169443130493164,-0.3835020959377289,18.75,0.0,3.563404083251953,-1.120448112487793,0.0,16.25,0.0,3.093123435974121,-0.036835670471191406,0.0,24.25,,,,,,,,,,,,,,,,,,,,,,,,,,,,,,,,,,,,,,,,
0.0,-3.636542528019972e-20,3.1240487098693848,-0.481579065322876,2.4373306495052576e-20,-0.4636557102203369,-0.47284582257270813,9.284405734735601e-20,-0.5147373080253601,-0.44906356930732727,0.0,3.2694339752197266,-0.8082389831542969,-0.9587552398443222,19.25,0.0,3.212571144104004,-0.7270574569702148,-0.7670041918754578,22.75,0.0,3.108501434326172,-0.42057037353515625,-0.7670041918754578,20.0,0.0,2.9418468475341797,0.030040740966796875,-0.19175104796886444,20.75,0.0,2.8717517852783203,0.09441375732421875,-0.19175104796886444,18.0,0.0,3.5594701766967773,-1.1279582977294922,0.0,16.25,0.0,3.092050552368164,-0.0947713851928711,0.0,25.0,,,,,,,,,,,,,,,,,,,,,,,,,,,,,,,,,,,,,,,,
0.0,-2.5888864551550246e-20,3.067453622817993,-0.5595346093177795,4.322428413486725e-20,-0.5439845323562622,-0.5618504881858826,9.887700220978349e-20,-0.5597580075263977,-0.48214566707611084,0.0,3.155350685119629,-1.2284517288208008,-0.19175104796886444,17.75,0.0,3.149271011352539,-0.8325576782226562,-0.7670041918754578,21.25,0.0,3.0748844146728516,-0.6387233734130859,-0.7670041918754578,21.0,0.0,2.9822587966918945,-0.32830238342285156,-0.3835020959377289,18.25,0.0,2.868175506591797,-0.15270709991455078,-0.3835020959377289,14.5,0.0,3.5190582275390625,-1.1740922927856445,0.0,12.0,0.0,3.084540367126465,-0.1519918441772461,0.0,24.25,,,,,,,,,,,,,,,,,,,,,,,,,,,,,,,,,,,,,,,,
0.0,-1.5132183632103665e-20,2.9899845123291016,-0.7458396553993225,6.038998144300743e-20,-0.6882759928703308,-0.8110052943229675,1.0347776785210635e-19,-0.6984721422195435,-0.6357442140579224,0.0,3.1017065048217773,-1.4891624450683594,-0.5752531439065933,21.0,0.0,3.161787986755371,-1.621842384338379,-0.3835020959377289,15.75,0.0,2.735137939453125,-1.2202262878417969,-0.3835020959377289,18.0,0.0,3.036618232727051,-1.3328790664672852,-1.5340083837509155,21.5,0.0,2.9790401458740234,-1.0256767272949219,-0.9587552398443222,19.75,0.0,2.9393434524536133,-0.27358531951904297,-0.3835020959377289,17.0,0.0,2.829909324645996,-0.08726119995117188,-0.19175104796886444,15.5,0.0,3.071308135986328,-0.240325927734375,0.0,23.5,,,,,,,,,,,,,,,,,,,,,,,,,,,,,,,,,,,
0.0,-7.016053059414582e-21,2.8829522132873535,-0.8593496084213257,7.239714134437111e-20,-0.8760749101638794,-0.8891381621360779,1.044965118622993e-19,-0.8849901556968689,-0.6164699792861938,0.0,1.7455816268920898,-1.4151334762573242,-0.19175104796886444,16.0,0.0,3.0738115310668945,-1.461625099182129,-1.1505062878131866,17.5,0.0,2.9969215393066406,-1.2917518615722656,-1.1505062878131866,17.25,0.0,2.7219057083129883,-0.8150339126586914,-0.7670041918754578,21.0,0.0,2.7834177017211914,-0.949859619140625,-0.3835020959377289,22.25,0.0,2.887845039367676,-1.0660886764526367,-1.5340083837509155,18.75,0.0,2.6181936264038086,-0.7030963897705078,-0.7670041918754578,14.25,0.0,2.225518226623535,-1.361846923828125,0.0,14.5,,,,,,,,,,,,,,,,,,,,,,,,,,,,,,,,,,,
0.0,1.2240177851220543e-22,2.7179739475250244,-1.0015207529067993,8.201013036027662e-20,-1.0895224809646606,-1.0310332775115967,1.0401575190534406e-19,-1.0188162326812744,-0.6749128699302673,0.0,1.8628835678100586,-1.3021230697631836,-0.19175104796886444,17.75,0.0,2.086043357849121,-1.2706518173217773,-0.19175104796886444,19.75,0.0,2.7190446853637695,-1.296401023864746,-0.7670041918754578,15.0,0.0,2.6274919509887695,-1.1286735534667969,-0.7670041918754578,19.75,0.0,2.5044679641723633,-0.7992982864379883,-1.1505062878131866,23.25,0.0,2.6232004165649414,-0.7538795471191406,-1.1505062878131866,23.75,,,,,,,,,,,,,,,,,,,,,,,,,,,,,,,,,,,,,,,,,,,,,
0.0,5.767374649358203e-21,2.564983606338501,-1.1153119802474976,8.814031418111883e-20,-1.2800917625427246,-1.0872235298156738,1.012304667618161e-19,-1.1392872333526611,-0.6417887806892395,0.0,2.041339874267578,-1.1762380599975586,0.19175104796886444,15.25,0.0,2.6521682739257812,-1.4673471450805664,-1.9175104796886444,16.0,0.0,2.4808645248413086,-1.1250972747802734,-1.1505062878131866,23.5,0.0,2.604961395263672,-1.238107681274414,-0.19175104796886444,21.75,0.0,2.837061882019043,-1.5170574188232422,-1.72575943171978,12.25,0.0,2.2820234298706055,-0.9827613830566406,-1.342257335782051,21.5,0.0,2.385735511779785,-0.9802579879760742,-1.1505062878131866,24.25,0.0,1.9862651824951172,-1.3818740844726562,0.0,22.5,,,,,,,,,,,,,,,,,,,,,,,,,,,,,,,,,,,
0.0,1.1332131246112828e-20,2.4246888160705566,-1.2282116413116455,9.333737364751586e-20,-1.3851323127746582,-1.1714537143707275,9.809253772105058e-20,-1.1081626415252686,-0.6751250624656677,0.0,2.362847328186035,-1.3124942779541016,-0.5752531439065933,21.75,0.0,2.6274919509887695,-1.427292823791504,0.19175104796886444,12.75,0.0,2.258777618408203,-1.1926889419555664,-0.5752531439065933,23.5,0.0,2.5337934494018555,-1.3289451599121094,-0.19175104796886444,19.0,0.0,2.1990537643432617,-0.8347034454345703,-0.7670041918754578,16.75,0.0,2.23696231842041,-0.9970664978027344,-0.7670041918754578,22.0,0.0,2.057790756225586,-1.2996196746826172,0.0,24.0,0.0,2.2323131561279297,-1.2677907943725586,0.0,25.25,,,,,,,,,,,,,,,,,,,,,,,,,,,,,,,,,,,
0.0,1.6354139423171893e-20,2.272582769393921,-1.3152471780776978,9.658831623947143e-20,-1.5081281661987305,-1.1745638847351074,9.379155396494429e-20,-1.1250251531600952,-0.6132387518882751,0.0,1.9472837448120117,-1.165151596069336,-0.3835020959377289,21.0,0.0,1.9973516464233398,-1.2778043746948242,-1.1505062878131866,21.5,0.0,2.263784408569336,-1.1715888977050781,-1.1505062878131866,20.5,0.0,2.4036169052124023,-1.225590705871582,-0.5752531439065933,19.75,0.0,2.5109052658081055,-1.2967586517333984,-0.5752531439065933,14.25,0.0,2.0030736923217773,-1.340031623840332,0.0,25.0,0.0,2.234816551208496,-1.2574195861816406,0.0,25.25,0.0,3.200054168701172,-1.5703439712524414,0.0,13.0,0.0,3.168940544128418,-1.2878179550170898,0.0,17.0,,,,,,,,,,,,,,,,,,,,,,,,,,,,,,
0.0,2.0745017678582235e-20,2.1559457778930664,-1.378795862197876,9.828691224030347e-20,-1.5304086208343506,-1.152851939201355,8.879945434470141e-20,-1.0166113376617432,-0.5578352212905884,0.0,2.1071434020996094,-1.1801719665527344,-0.3835020959377289,19.5,0.0,2.44903564453125,-1.3393163681030273,-0.5752531439065933,12.25,0.0,2.0356178283691406,-1.0371208190917969,-0.19175104796886444,16.75,0.0,2.2526979446411133,-1.2155771255493164,-0.7670041918754578,19.75,0.0,2.387881278991699,-1.2230873107910156,-0.5752531439065933,18.25,0.0,2.0345449447631836,-1.3092756271362305,0.0,25.5,0.0,1.971602439880371,-1.1619329452514648,0.0,23.0,,,,,,,,,,,,,,,,,,,,,,,,,,,,,,,,,,,,,,,,
0.0,2.5502792540925325e-20,2.055272340774536,-1.4373112916946411,9.989154569342831e-20,-1.4992179870605469,-1.1363261938095093,8.411926643887638e-20,-0.8536163568496704,-0.5267285704612732,0.0,1.9683837890625,-1.0925531387329102,0.19175104796886444,17.0,0.0,2.043485641479492,-1.2055635452270508,-0.3835020959377289,16.75,0.0,2.2945404052734375,-1.1368989944458008,-0.3835020959377289,16.5,0.0,2.4329423904418945,-1.1208057403564453,-0.19175104796886444,15.75,0.0,1.979827880859375,-1.1311769485473633,0.0,23.5,,,,,,,,,,,,,,,,,,,,,,,,,,,,,,,,,,,,,,,,,,,,,,,,,,
0.0,2.9327297645981194e-20,1.9655500650405884,-1.5128886699676514,9.967090172737832e-20,-1.4326781034469604,-1.1655341386795044,7.862495186454018e-20,-0.662800669670105,-0.5538792610168457,0.0,1.9294023513793945,-1.328587532043457,0.19175104796886444,16.0,0.0,1.8678903579711914,-1.1744499206542969,0.19175104796886444,18.0,0.0,2.232670783996582,-1.2305974960327148,-0.19175104796886444,15.5,0.0,2.4129152297973633,-1.176595687866211,0.3835020959377289,14.0,,,,,,,,,,,,,,,,,,,,,,,,,,,,,,,,,,,,,,,,,,,,,,,,,,,,,,,
0.0,-6.403202900340678e-22,3.1250853538513184,-0.6887325644493103,-2.173509349898104e-21,-0.34459930658340454,-0.8376397490501404,-1.3736512440308807e-21,-0.5189260244369507,-0.5238416194915771,0.0,3.1456947326660156,-1.233816146850586,-0.5752531439065933,20.5,0.0,3.268003463745117,-1.3822317123413086,-0.3835020959377289,12.5,0.0,3.1478404998779297,-0.8511543273925781,-0.3835020959377289,24.0,0.0,3.098130226135254,-0.6144046783447266,-0.3835020959377289,23.0,0.0,3.0105113983154297,-0.32973289489746094,-0.3835020959377289,19.5,0.0,2.8821229934692383,-0.0064373016357421875,-0.3835020959377289,14.0,,,,,,,,,,,,,,,,,,,,,,,,,,,,,,,,,,,,,,,,,,,,,
0.0,-6.588084633491599e-22,3.0763261318206787,-0.7515862584114075,-2.038885301308315e-21,-0.4563581943511963,-0.8274964094161987,-1.1985214977427236e-21,-0.6215356588363647,-0.4541512131690979,0.0,3.098130226135254,-1.4265775680541992,-0.5752531439065933,20.5,0.0,3.1507015228271484,-1.5799999237060547,-0.5752531439065933,13.0,0.0,3.1610727310180664,-0.973820686340332,-0.5752531439065933,22.0,0.0,3.131389617919922,-0.5156993865966797,-0.5752531439065933,20.0,0.0,2.950429916381836,-0.2460479736328125,-0.3835020959377289,15.75,0.0,2.7959346771240234,0.06330013275146484,-0.3835020959377289,16.75,,,,,,,,,,,,,,,,,,,,,,,,,,,,,,,,,,,,,,,,,,,,,
0.0,-6.581699025344888e-22,3.013289213180542,-0.7694456577301025,-1.87933819584914e-21,-0.5568715333938599,-0.7420649528503418,-1.0188538701180496e-21,-0.6841578483581543,-0.3317875266075134,0.0,2.8957128524780273,-1.1107921600341797,-0.5752531439065933,20.0,0.0,3.0434131622314453,-1.1451244354248047,-0.7670041918754578,17.75,0.0,3.1363964080810547,-1.3010501861572266,-0.7670041918754578,15.25,0.0,2.892136573791504,-0.3039836883544922,-0.3835020959377289,19.75,0.0,2.732992172241211,-0.03647804260253906,-0.3835020959377289,14.0,0.0,2.8012990951538086,-0.07653236389160156,-0.3835020959377289,19.75,0.0,3.242611885070801,-1.2878179550170898,0.0,24.25,,,,,,,,,,,,,,,,,,,,,,,,,,,,,,,,,,,,,,,,
0.0,-6.208481231802393e-22,2.9572079181671143,-0.898504376411438,-1.6765784764487592e-21,-0.6159871220588684,-0.8743813633918762,-8.24950950846962e-22,-0.6631733775138855,-0.4211607873439789,0.0,3.1818151473999023,-1.5081167221069336,0.19175104796886444,14.5,0.0,2.924323081970215,-1.1919736862182617,-0.7670041918754578,22.75,0.0,3.0319690704345703,-1.2531280517578125,0.19175104796886444,22.25,0.0,3.0977725982666016,-1.3883113861083984,0.19175104796886444,19.5,0.0,2.8438568115234375,-0.9684562683105469,-0.7670041918754578,20.25,0.0,2.7712583541870117,-0.4055500030517578,-0.3835020959377289,17.5,0.0,2.686142921447754,-0.17344951629638672,-0.3835020959377289,13.75,0.0,3.2140016555786133,-1.3282299041748047,0.0,24.5,,,,,,,,,,,,,,,,,,,,,,,,,,,,,,,,,,,
0.0,-6.016373280324158e-22,2.8583245277404785,-0.979145884513855,-1.5016616847396882e-21,-0.7381906509399414,-0.895659327507019,-6.589257953647588e-22,-0.7246350049972534,-0.3971106708049774,0.0,1.811385154724121,-1.2652873992919922,-0.19175104796886444,12.75,0.0,2.7751922607421875,-1.0671615600585938,-0.3835020959377289,23.75,0.0,2.8116703033447266,-1.2166500091552734,-0.3835020959377289,21.5,0.0,2.9178857803344727,-1.2753009796142578,-1.1505062878131866,17.0,0.0,2.7437210083007812,-0.6093978881835938,-0.3835020959377289,21.75,0.0,2.6636123657226562,-0.2714395523071289,-0.3835020959377289,18.25,0.0,3.200054168701172,-1.2992620468139648,0.0,21.5,0.0,3.3473968505859375,-1.259922981262207,0.0,19.5,0.0,3.499746322631836,-1.2778043746948242,0.0,15.75,,,,,,,,,,,,,,,,,,,,,,,,,,,,,,
0.0,-5.409886414099678e-22,2.7250521183013916,-1.0764907598495483,-1.275576623171145e-21,-0.9164602756500244,-0.929585874080658,-4.6924304212288855e-22,-0.8500645756721497,-0.37514448165893555,0.0,1.8242597579956055,-1.2606382369995117,-0.19175104796886444,13.0,0.0,2.750873565673828,-1.6275644302368164,-1.5340083837509155,13.0,0.0,2.6128292083740234,-1.2677907943725586,-0.3835020959377289,21.75,0.0,2.669692039489746,-1.4104843139648438,-0.3835020959377289,18.0,0.0,2.5380849838256836,-1.1283159255981445,-0.3835020959377289,23.25,0.0,2.475142478942871,-0.5353689193725586,-0.9587552398443222,15.0,0.0,2.5767087936401367,-0.5478858947753906,-0.9587552398443222,21.25,0.0,3.2132863998413086,-1.4998912811279297,0.0,15.75,0.0,3.049492835998535,-1.2749433517456055,0.0,19.0,0.0,3.127455711364746,-1.3886690139770508,0.0,20.25,0.0,3.4210681915283203,-1.5377998352050781,0.0,12.25,,,,,,,,,,,,,,,,,,,,
0.0,-5.189287583515246e-22,2.5931711196899414,-1.1252925395965576,-1.1112374843244526e-21,-1.1080782413482666,-0.8406005501747131,-3.294278596364131e-22,-1.018099069595337,-0.22280000150203705,0.0,2.6417970657348633,-1.4941692352294922,-1.5340083837509155,15.25,0.0,2.438664436340332,-1.2080669403076172,-0.9587552398443222,23.5,0.0,2.54666805267334,-1.301407814025879,-0.3835020959377289,20.0,0.0,2.419710159301758,-1.0203123092651367,-1.72575943171978,22.75,0.0,2.407193183898926,-0.7317066192626953,-1.72575943171978,17.5,0.0,1.8006563186645508,-1.433730125427246,0.0,19.75,0.0,2.0009279251098633,-1.3625621795654297,0.0,21.5,0.0,3.1903982162475586,-1.497030258178711,0.0,14.75,0.0,3.0444860458374023,-1.2527704238891602,0.0,19.25,0.0,3.113865852355957,-1.3979673385620117,0.0,20.25,,,,,,,,,,,,,,,,,,,,,,,,,
0.0,-4.801671374512912e-22,2.4680919647216797,-1.1599757671356201,-9.383590587073748e-22,-1.2105461359024048,-0.7779520153999329,-1.96448554479574e-22,-1.0137152671813965,-0.15194591879844666,0.0,2.477288246154785,-1.4033317565917969,-0.3835020959377289,15.25,0.0,2.3685693740844727,-1.2402534484863281,-0.3835020959377289,20.0,0.0,2.31170654296875,-0.9695291519165039,-0.7670041918754578,22.5,0.0,2.22623348236084,-0.722050666809082,-1.342257335782051,20.5,0.0,2.258777618408203,-0.8071660995483398,-0.7670041918754578,24.25,0.0,1.8260478973388672,-1.3918876647949219,0.0,20.75,0.0,1.9612312316894531,-1.3904571533203125,0.0,22.0,0.0,3.097057342529297,-1.4297962188720703,0.0,20.25,0.0,3.1621456146240234,-1.5349388122558594,0.0,14.25,0.0,3.0455589294433594,-1.268148422241211,0.0,19.5,,,,,,,,,,,,,,,,,,,,,,,,,
0.0,-4.392180620588651e-22,2.336806535720825,-1.2736884355545044,-7.75528928730836e-22,-1.2847009897232056,-0.8873888850212097,-8.02821218888527e-23,-0.9421771764755249,-0.2650807499885559,0.0,2.0842552185058594,-1.1780261993408203,-0.5752531439065933,22.25,0.0,2.2001266479492188,-1.3049840927124023,-0.19175104796886444,22.25,0.0,2.0155906677246094,-1.076817512512207,-0.5752531439065933,20.75,0.0,2.404332160949707,-1.2885332107543945,-0.19175104796886444,21.5,0.0,2.5398731231689453,-1.280665397644043,-0.19175104796886444,17.25,0.0,1.8839836120605469,-1.2989044189453125,0.0,24.5,0.0,1.970529556274414,-1.3071298599243164,0.0,25.5,0.0,3.0241012573242188,-1.2974739074707031,0.0,19.75,,,,,,,,,,,,,,,,,,,,,,,,,,,,,,,,,,,
0.0,-9.002409005788256e-28,3.121128559112549,-0.5836328268051147,-4.1475020760035676e-27,-0.36369115114212036,-0.38448718190193176,-1.5770136460014724e-27,-0.4461213946342468,-0.16267652809619904,0.0,3.220796585083008,-1.2602806091308594,-0.3835020959377289,21.25,0.0,3.310561180114746,-1.3157129287719727,-0.3835020959377289,20.0,0.0,3.1496286392211914,-0.9995698928833008,-0.3835020959377289,22.5,0.0,3.0666589736938477,-0.3647804260253906,-0.3835020959377289,21.75,0.0,2.902507781982422,0.051140785217285156,-0.3835020959377289,19.0,0.0,2.951502799987793,0.016450881958007812,-0.3835020959377289,23.75,0.0,3.4983158111572266,-1.3096332550048828,0.0,12.75,0.0,3.0412673950195312,0.015020370483398438,0.0,23.0,,,,,,,,,,,,,,,,,,,,,,,,,,,,,,,,,,,
0.0,-9.780728333458664e-28,3.073975086212158,-0.6264694333076477,-3.88215245568375e-27,-0.4628044366836548,-0.3936595320701599,-1.3186312698484697e-27,-0.5422810912132263,-0.1446910947561264,0.0,3.1582117080688477,-0.9577274322509766,-0.7670041918754578,26.75,0.0,3.2111406326293945,-1.0095834732055664,-0.5752531439065933,23.0,0.0,3.317713737487793,-1.1304616928100586,-0.5752531439065933,13.25,0.0,3.086686134338379,-0.8035898208618164,-0.7670041918754578,23.25,0.0,2.9768943786621094,-0.102996826171875,-0.3835020959377289,21.0,0.0,2.891421318054199,-0.03826618194580078,-0.3835020959377289,16.75,0.0,3.036975860595703,-0.02467632293701172,0.0,22.75,,,,,,,,,,,,,,,,,,,,,,,,,,,,,,,,,,,,,,,,
0.0,-1.0229570158857998e-27,3.007110834121704,-0.7536818385124207,-3.6016072481027164e-27,-0.5858079195022583,-0.5453640222549438,-1.0734128174583483e-27,-0.6452846527099609,-0.24905090034008026,0.0,3.183603286743164,-1.7452239990234375,-1.1505062878131866,16.75,0.0,3.2057762145996094,-1.932978630065918,-1.1505062878131866,14.0,0.0,3.0666589736938477,-1.567840576171875,-0.7670041918754578,16.75,0.0,2.957940101623535,-1.3278722763061523,-0.7670041918754578,20.25,0.0,2.9758214950561523,-0.8157491683959961,-0.3835020959377289,21.5,0.0,2.923250198364258,-0.5092620849609375,-0.3835020959377289,21.25,0.0,2.8606653213500977,-0.2903938293457031,-0.3835020959377289,17.75,0.0,3.344893455505371,-1.645803451538086,0.0,12.75,0.0,3.1260251998901367,-0.32830238342285156,0.0,26.5,0.0,2.9250383377075195,0.0457763671875,0.0,17.75,0.0,3.0144453048706055,-0.08118152618408203,0.0,24.25,,,,,,,,,,,,,,,,,,,,
0.0,-9.923695891020361e-28,2.940763473510742,-0.8313994407653809,-3.1976442126394715e-27,-0.6837735176086426,-0.5970231890678406,-7.532383271906422e-28,-0.7038784027099609,-0.261707067489624,0.0,3.2057762145996094,-1.5431642532348633,-0.19175104796886444,14.0,0.0,3.034830093383789,-1.2055635452270508,-0.9587552398443222,22.25,0.0,3.1113624572753906,-1.3682842254638672,-0.7670041918754578,17.5,0.0,2.9532909393310547,-1.0095834732055664,-0.9587552398443222,22.0,0.0,2.8678178787231445,-0.7016658782958984,-0.3835020959377289,21.25,0.0,2.7877092361450195,-0.4202127456665039,-0.3835020959377289,19.75,0.0,2.715468406677246,-0.24461746215820312,-0.3835020959377289,13.75,0.0,3.051638603210449,-2.125382423400879,0.0,14.0,,,,,,,,,,,,,,,,,,,,,,,,,,,,,,,,,,,
0.0,-9.784843082784847e-28,2.851954936981201,-0.8708046078681946,-2.817967731553933e-27,-0.8127861022949219,-0.5672323703765869,-4.6629325440441015e-28,-0.8005096316337585,-0.1960204541683197,0.0,2.9218196868896484,-1.3672113418579102,-1.9175104796886444,14.75,0.0,2.807021141052246,-1.2581348419189453,-1.342257335782051,18.25,0.0,3.1131505966186523,-1.360774040222168,-0.19175104796886444,12.0,0.0,2.768397331237793,-0.8922815322875977,-0.7670041918754578,20.0,0.0,2.7086734771728516,-0.5350112915039062,-0.5752531439065933,21.5,0.0,2.6804208755493164,-0.2589225769042969,-0.5752531439065933,18.5,0.0,1.8246173858642578,-1.4308691024780273,0.0,14.75,0.0,1.9594430923461914,-1.3829469680786133,0.0,17.5,0.0,3.144979476928711,-1.990199089050293,0.0,13.25,,,,,,,,,,,,,,,,,,,,,,,,,,,,,,
0.0,-8.956533354512952e-28,2.678154945373535,-1.0345184803009033,-2.3954959315461432e-27,-1.057957649230957,-0.7619044780731201,-1.7568477397446194e-28,-0.984539806842804,-0.33133459091186523,0.0,1.7892122268676758,-1.3461112976074219,-0.19175104796886444,23.75,0.0,1.8918514251708984,-1.313924789428711,-0.19175104796886444,21.75,0.0,2.8917789459228516,-1.3704299926757812,-2.3010125756263733,13.5,0.0,2.569913864135742,-1.1150836944580078,-0.9587552398443222,20.25,0.0,2.6918649673461914,-1.1487007141113281,-0.9587552398443222,18.25,0.0,2.804875373840332,-1.1823177337646484,-1.5340083837509155,17.0,0.0,2.543807029724121,-0.5514621734619141,-0.9587552398443222,16.75,0.0,1.796722412109375,-1.3664960861206055,0.0,22.0,0.0,1.902937889099121,-1.3643503189086914,0.0,21.25,0.0,3.0666589736938477,-2.111077308654785,0.0,12.0,0.0,3.1020641326904297,-1.2059211730957031,0.0,20.5,0.0,3.234744071960449,-1.1665821075439453,0.0,22.0,,,,,,,,,,,,,,,
0.0,-8.331904199369617e-28,2.51058292388916,-1.146427035331726,-2.0071252249126573e-27,-1.2757967710494995,-0.8349571824073792,7.93248414375569e-29,-1.1332268714904785,-0.3438471853733063,0.0,1.8432140350341797,-1.295328140258789,-0.19175104796886444,20.75,0.0,2.602815628051758,-1.4355182647705078,-1.72575943171978,13.25,0.0,2.1822452545166016,-1.027822494506836,-1.9175104796886444,20.0,0.0,2.383589744567871,-1.112222671508789,-1.1505062878131866,22.25,0.0,2.432584762573242,-1.301407814025879,-0.9587552398443222,25.25,0.0,2.5191307067871094,-1.3053417205810547,-0.9587552398443222,20.0,0.0,1.8053054809570312,-1.3625621795654297,0.0,22.5,0.0,1.9755363464355469,-1.301407814025879,0.0,22.0,0.0,3.0924081802368164,-1.1833906173706055,0.0,20.75,0.0,3.206491470336914,-1.1633634567260742,0.0,20.25,,,,,,,,,,,,,,,,,,,,,,,,,
0.0,-8.049854647909023e-28,2.3875997066497803,-1.1911791563034058,-1.681996279863015e-27,-1.358021855354309,-0.8053568601608276,2.9070578804038837e-28,-1.0923596620559692,-0.29557836055755615,0.0,2.489447593688965,-1.1358261108398438,-1.342257335782051,21.75,0.0,2.5434494018554688,-1.2542009353637695,-0.3835020959377289,19.5,0.0,2.1811723709106445,-0.8761882781982422,-0.3835020959377289,16.25,0.0,2.22623348236084,-0.9809732437133789,-0.7670041918754578,21.25,0.0,2.3528337478637695,-1.0303258895874023,-0.7670041918754578,21.0,0.0,1.7938613891601562,-1.3729333877563477,0.0,23.75,0.0,1.8972158432006836,-1.3886690139770508,0.0,22.5,0.0,3.1861066818237305,-1.5234947204589844,0.0,15.25,0.0,3.0738115310668945,-1.2052059173583984,0.0,20.75,0.0,3.177165985107422,-1.2241601943969727,0.0,20.0,,,,,,,,,,,,,,,,,,,,,,,,,
0.0,-7.939799307166959e-28,2.2444941997528076,-1.283944010734558,-1.4106565359336667e-27,-1.4386752843856812,-0.883512556552887,4.535052721666733e-28,-1.0284719467163086,-0.3653484582901001,0.0,2.027750015258789,-1.1680126190185547,-0.3835020959377289,23.5,0.0,2.1371841430664062,-1.292109489440918,-0.5752531439065933,20.5,0.0,2.021670341491699,-0.9963512420654297,-0.3835020959377289,23.5,0.0,2.3725032806396484,-1.260995864868164,0.19175104796886444,17.25,0.0,1.8417835235595703,-1.318216323852539,0.0,24.5,0.0,1.9354820251464844,-1.3439655303955078,0.0,24.0,,,,,,,,,,,,,,,,,,,,,,,,,,,,,,,,,,,,,,,,,,,,,
0.0,-7.533313014587075e-28,2.1111605167388916,-1.3831621408462524,-1.120051329584624e-27,-1.4846864938735962,-0.9690929651260376,6.183976162152753e-28,-0.937591552734375,-0.44009771943092346,0.0,1.886129379272461,-1.341104507446289,0.19175104796886444,21.5,0.0,2.03704833984375,-1.2516975402832031,-0.19175104796886444,24.0,0.0,2.16829776763916,-1.2313127517700195,-0.3835020959377289,22.0,0.0,2.3478269577026367,-1.2316703796386719,-0.5752531439065933,17.5,0.0,1.8575191497802734,-1.2810230255126953,0.0,25.5,,,,,,,,,,,,,,,,,,,,,,,,,,,,,,,,,,,,,,,,,,,,,,,,,,
0.0,-6.874007490795048e-28,1.9998892545700073,-1.450287103652954,-8.176152318837077e-28,-1.4754784107208252,-0.990632176399231,7.816559050025619e-28,-0.80600506067276,-0.45430710911750793,0.0,1.8128156661987305,-1.3003349304199219,-0.19175104796886444,22.25,0.0,1.8600225448608398,-1.3453960418701172,-0.19175104796886444,20.25,0.0,2.271294593811035,-1.0696649551391602,-0.19175104796886444,15.0,0.0,2.483367919921875,-1.0575056076049805,-0.19175104796886444,14.5,,,,,,,,,,,,,,,,,,,,,,,,,,,,,,,,,,,,,,,,,,,,,,,,,,,,,,,
0.0,-1.3521803206068137e-31,3.059379816055298,-0.42522698640823364,1.2901761439257983e-30,-0.1604985147714615,-0.07032093405723572,2.3495566674066293e-30,-0.12341812252998352,-0.08189050108194351,0.0,2.912163734436035,-2.4268627166748047,-0.7670041918754578,13.0,0.0,2.9439926147460938,-2.075314521789551,-0.3835020959377289,12.75,0.0,3.1671524047851562,-0.9459257125854492,-0.3835020959377289,24.0,0.0,3.238677978515625,-0.9008646011352539,-0.3835020959377289,19.25,0.0,3.103494644165039,-0.7045269012451172,-0.3835020959377289,20.5,0.0,2.9125213623046875,-0.036835670471191406,-0.19175104796886444,18.25,0.0,2.740144729614258,0.11408329010009766,-0.3835020959377289,12.75,0.0,2.7930736541748047,0.09834766387939453,-0.19175104796886444,19.5,0.0,3.279447555541992,-0.9877681732177734,0.0,26.25,0.0,3.3184289932250977,-1.1501312255859375,0.0,18.5,0.0,3.2215118408203125,-0.825047492980957,0.0,26.75,0.0,3.104567527770996,-0.1609325408935547,0.0,25.5,0.0,2.9822587966918945,-0.011801719665527344,0.0,25.75,0.0,2.8971433639526367,0.11587142944335938,0.0,20.25,,,,,
0.0,1.769892252865193e-33,3.030885934829712,-0.5753243565559387,1.5199698670256727e-30,-0.214495450258255,-0.32191333174705505,2.3461904277440665e-30,-0.1807737946510315,-0.28578582406044006,0.0,3.0809640884399414,-1.455545425415039,-0.3835020959377289,20.75,0.0,3.1821727752685547,-1.5821456909179688,-0.19175104796886444,15.5,0.0,2.9382705688476562,-1.2602806091308594,-0.19175104796886444,19.5,0.0,3.0187368392944336,-1.363992691040039,-0.3835020959377289,23.0,0.0,2.842426300048828,-0.28145313262939453,-0.19175104796886444,14.75,0.0,2.9261112213134766,-0.33974647521972656,-0.19175104796886444,17.75,0.0,3.2079219818115234,-1.2112855911254883,0.0,24.0,0.0,3.2662153244018555,-1.3725757598876953,0.0,16.75,0.0,2.953648567199707,-0.0007152557373046875,0.0,24.25,0.0,2.881765365600586,0.1201629638671875,0.0,20.25,,,,,,,,,,,,,,,,,,,,,,,,,
0.0,1.110040474379801e-31,2.97641921043396,-0.7238964438438416,1.679144215347355e-30,-0.36297324299812317,-0.5267066359519958,2.2966186084557658e-30,-0.3872235119342804,-0.4132830798625946,0.0,3.0226707458496094,-1.511693000793457,-1.1505062878131866,20.0,0.0,3.1585693359375,-1.559615135192871,-1.1505062878131866,12.75,0.0,2.9997825622558594,-1.3117790222167969,-0.5752531439065933,23.75,0.0,3.0155181884765625,-0.9595155715942383,-0.5752531439065933,23.0,0.0,2.9300451278686523,-0.698089599609375,-0.3835020959377289,19.0,0.0,2.818465232849121,-0.3361701965332031,-0.3835020959377289,16.25,0.0,3.196835517883301,-1.2166500091552734,0.0,24.75,0.0,2.8842687606811523,0.08440017700195312,0.0,20.75,0.0,2.944350242614746,0.00858306884765625,0.0,24.5,,,,,,,,,,,,,,,,,,,,,,,,,,,,,,
0.0,2.1140617026657187e-31,2.930130958557129,-0.8449640870094299,1.802958000884438e-30,-0.4618333876132965,-0.6640822887420654,2.2276742661077215e-30,-0.4927615523338318,-0.4778876304626465,0.0,3.254413604736328,-1.484513282775879,-0.19175104796886444,12.5,0.0,2.901434898376465,-1.25885009765625,-0.9587552398443222,19.75,0.0,3.005862236022949,-1.2770891189575195,-0.9587552398443222,20.0,0.0,3.108859062194824,-1.3228654861450195,-0.19175104796886444,17.0,0.0,2.864956855773926,-0.8425712585449219,-0.3835020959377289,18.25,0.0,2.802729606628418,-0.2810955047607422,-0.19175104796886444,16.5,0.0,1.7741918563842773,-1.4255046844482422,0.0,16.0,0.0,1.7870664596557617,-1.4963150024414062,0.0,16.25,0.0,3.1299591064453125,-1.3396739959716797,0.0,17.75,0.0,2.8367042541503906,0.03361701965332031,0.0,20.5,0.0,2.915024757385254,0.00035762786865234375,0.0,22.0,,,,,,,,,,,,,,,,,,,,
0.0,2.9263285341827895e-31,2.8416006565093994,-0.9602786898612976,1.8767656925002522e-30,-0.629302442073822,-0.7664569020271301,2.1300937528990695e-30,-0.6660294532775879,-0.4984472990036011,0.0,1.7752647399902344,-1.3750791549682617,-0.19175104796886444,16.5,0.0,1.8485784530639648,-1.4190673828125,-0.19175104796886444,15.5,0.0,3.0312538146972656,-1.5256404876708984,-0.19175104796886444,13.75,0.0,2.6628971099853516,-1.0449886322021484,-0.5752531439065933,18.75,0.0,2.753734588623047,-1.1333227157592773,-1.1505062878131866,22.0,0.0,2.8492212295532227,-1.132965087890625,-1.1505062878131866,18.75,0.0,2.9561519622802734,-1.2427568435668945,-0.19175104796886444,16.0,0.0,2.48873233795166,-0.8965730667114258,-0.5752531439065933,14.0,0.0,1.749873161315918,-1.407623291015625,0.0,19.5,0.0,3.079533576965332,-1.153707504272461,0.0,18.75,0.0,3.1381845474243164,-1.2695789337158203,0.0,17.0,0.0,3.2941102981567383,-1.3343095779418945,0.0,12.75,0.0,2.9261112213134766,-0.1348257064819336,0.0,22.0,0.0,2.717256546020508,0.04935264587402344,0.0,14.0,0.0,2.834916114807129,-0.0654458999633789,0.0,20.75
0.0,3.518661313056491e-31,2.7378058433532715,-0.9709963798522949,1.8995127307027884e-30,-0.819901168346405,-0.6560238599777222,2.0041479027282393e-30,-0.8665968179702759,-0.31905925273895264,0.0,2.687215805053711,-1.1250972747802734,-0.5752531439065933,25.75,0.0,2.7855634689331055,-1.156926155090332,-1.5340083837509155,22.75,0.0,2.8846263885498047,-1.2738704681396484,-1.5340083837509155,15.0,0.0,2.633213996887207,-0.937342643737793,-0.5752531439065933,24.5,0.0,2.599954605102539,-0.640869140625,-1.1505062878131866,20.75,0.0,2.5016069412231445,-0.5657672882080078,-1.342257335782051,12.75,0.0,1.7920732498168945,-1.4029741287231445,0.0,20.75,0.0,1.8829107284545898,-1.4358758926391602,0.0,21.75,0.0,2.101421356201172,-1.4226436614990234,0.0,19.25,0.0,3.0688047409057617,-1.155853271484375,0.0,18.75,0.0,3.149271011352539,-1.2499094009399414,0.0,17.0,0.0,3.2694339752197266,-1.4058351516723633,0.0,12.5,,,,,,,,,,,,,,,
0.0,3.786014102515421e-31,2.6055898666381836,-1.033093810081482,1.8654816990487428e-30,-1.0273100137710571,-0.650701105594635,1.8499134518664524e-30,-1.0400232076644897,-0.2564678192138672,0.0,2.7387142181396484,-1.3064146041870117,-1.5340083837509155,17.0,0.0,2.8531551361083984,-1.465916633605957,0.19175104796886444,13.5,0.0,2.2197961807250977,-0.8443593978881836,-0.9587552398443222,13.5,0.0,2.4057626724243164,-1.0063648223876953,-0.9587552398443222,22.25,0.0,2.509474754333496,-1.1168718338012695,-0.9587552398443222,23.75,0.0,2.6543140411376953,-1.113295555114746,-1.5340083837509155,22.0,0.0,2.328157424926758,-0.8368492126464844,-0.9587552398443222,20.25,0.0,1.7781257629394531,-1.4340877532958984,0.0,21.75,0.0,1.9322633743286133,-1.4019012451171875,0.0,22.5,0.0,2.38645076751709,-1.0199546813964844,0.0,21.25,0.0,3.1485557556152344,-1.2513399124145508,0.0,17.0,0.0,3.2465457916259766,-1.4262199401855469,0.0,12.75,0.0,2.642512321472168,-0.8797645568847656,0.0,22.5,0.0,3.064870834350586,-1.1304616928100586,0.0,19.25,,,,,
0.0,4.234504458865441e-31,2.469285488128662,-1.1411159038543701,1.8497238681375518e-30,-1.1743767261505127,-0.7553201913833618,1.719557146891337e-30,-1.0745137929916382,-0.3291581869125366,0.0,2.2437572479248047,-1.2792348861694336,-0.7670041918754578,21.5,0.0,2.4129152297973633,-1.3117790222167969,-0.7670041918754578,22.0,0.0,2.166152000427246,-1.1000633239746094,-0.3835020959377289,20.25,0.0,2.5534629821777344,-1.3121366500854492,-0.5752531439065933,19.25,0.0,2.6328563690185547,-1.3976097106933594,-0.5752531439065933,14.5,0.0,2.156496047973633,-0.7871389389038086,-1.1505062878131866,16.75,0.0,1.8661022186279297,-1.3228654861450195,0.0,23.0,0.0,1.9837617874145508,-1.3228654861450195,0.0,23.75,0.0,2.308487892150879,-1.146554946899414,0.0,22.25,0.0,3.0008554458618164,-1.3085603713989258,0.0,18.75,0.0,3.116726875305176,-1.3350248336791992,0.0,16.75,0.0,2.618551254272461,-0.9276866912841797,0.0,23.0,,,,,,,,,,,,,,,
0.0,4.653466162023935e-31,2.3402652740478516,-1.2551286220550537,1.8219276585202677e-30,-1.2593663930892944,-0.886167585849762,1.5909778132164725e-30,-1.0092284679412842,-0.4463900029659271,0.0,2.0095109939575195,-1.1916160583496094,-0.19175104796886444,21.25,0.0,2.1489858627319336,-1.3554096221923828,-0.9587552398443222,18.75,0.0,2.417922019958496,-1.3225078582763672,-0.3835020959377289,17.5,0.0,1.9769668579101562,-0.9666681289672852,-0.19175104796886444,22.5,0.0,2.5659799575805664,-1.3350248336791992,-0.3835020959377289,17.0,0.0,2.70688533782959,-1.3207197189331055,-0.3835020959377289,13.75,0.0,1.8911361694335938,-1.2434720993041992,0.0,23.75,,,,,,,,,,,,,,,,,,,,,,,,,,,,,,,,,,,,,,,,
0.0,1.3154973443099543e-32,3.177485942840576,-0.6616930961608887,2.1963729909450425e-32,-0.4617435336112976,-0.4470752477645874,4.4305120439881126e-33,-0.40792202949523926,-0.5514127016067505,0.0,3.3380985260009766,-1.5342235565185547,-0.5752531439065933,13.0,0.0,3.163933753967285,-1.2127161026000977,-0.5752531439065933,18.5,0.0,3.2225847244262695,-1.4172792434692383,-0.5752531439065933,22.5,0.0,3.2798051834106445,-1.4591217041015625,-0.5752531439065933,21.0,0.0,2.9740333557128906,-0.15163421630859375,-0.3835020959377289,19.5,0.0,3.046274185180664,-0.25284290313720703,-0.3835020959377289,17.0,0.0,3.3767223358154297,-1.0106563568115234,0.0,28.75,0.0,3.414630889892578,-1.0939836502075195,0.0,26.5,,,,,,,,,,,,,,,,,,,,,,,,,,,,,,,,,,,
0.0,1.1537234607610895e-32,3.1249356269836426,-0.6743466854095459,1.7574398738649479e-32,-0.5173006653785706,-0.44015616178512573,1.407456120437988e-33,-0.43376433849334717,-0.49552029371261597,0.0,3.2830238342285156,-1.3121366500854492,-0.5752531439065933,16.25,0.0,3.167867660522461,-1.1658668518066406,-0.5752531439065933,22.0,0.0,3.1142234802246094,-0.8111000061035156,-0.5752531439065933,27.0,0.0,3.059864044189453,-0.47206878662109375,-0.3835020959377289,28.75,0.0,3.008723258972168,-0.1995563507080078,-0.3835020959377289,27.25,0.0,2.9414892196655273,-0.0629425048828125,-0.3835020959377289,19.75,0.0,3.3663511276245117,-1.555323600769043,0.0,14.75,0.0,3.385305404663086,-1.1072158813476562,0.0,23.25,0.0,3.348112106323242,-0.9616613388061523,0.0,27.75,0.0,3.2858848571777344,-0.5611181259155273,0.0,25.5,,,,,,,,,,,,,,,,,,,,,,,,,
0.0,9.991863612462682e-33,3.069995164871216,-0.7435567378997803,1.353730445007243e-32,-0.5670257210731506,-0.5267680883407593,-1.2083106633483918e-33,-0.44355446100234985,-0.525772750377655,0.0,3.208279609680176,-1.2999773025512695,-0.5752531439065933,18.75,0.0,3.2880306243896484,-1.361846923828125,-0.5752531439065933,14.5,0.0,3.1152963638305664,-1.0181665420532227,-0.3835020959377289,18.25,0.0,2.9861927032470703,-0.7688999176025391,-0.3835020959377289,20.5,0.0,2.9211044311523438,-0.44524669647216797,-0.3835020959377289,20.25,0.0,2.8524398803710938,-0.13947486877441406,-0.3835020959377289,17.25,0.0,3.383159637451172,-1.1014938354492188,0.0,21.5,0.0,3.3388137817382812,-0.9652376174926758,0.0,26.75,,,,,,,,,,,,,,,,,,,,,,,,,,,,,,,,,,,
0.0,8.183928321643049e-33,3.0071799755096436,-0.7897340059280396,9.40349562909751e-33,-0.6282167434692383,-0.5589225888252258,-3.7373601268486575e-33,-0.4732421338558197,-0.503555953502655,0.0,3.0956268310546875,-1.4340877532958984,0.19175104796886444,20.0,0.0,3.187894821166992,-1.5703439712524414,-0.7670041918754578,13.5,0.0,3.0455589294433594,-1.246333122253418,-0.9587552398443222,21.75,0.0,2.959012985229492,-0.8257627487182617,-0.5752531439065933,21.75,0.0,2.887129783630371,-0.4144906997680664,-0.5752531439065933,24.5,0.0,2.849578857421875,-0.24139881134033203,-0.5752531439065933,22.25,0.0,2.7598142623901367,-0.03898143768310547,-0.3835020959377289,12.75,,,,,,,,,,,,,,,,,,,,,,,,,,,,,,,,,,,,,,,,
0.0,6.914439973161073e-33,2.908522129058838,-0.7861959338188171,6.198637381907226e-33,-0.7957126498222351,-0.46853718161582947,-5.5718366107419194e-33,-0.6777427196502686,-0.3475804924964905,0.0,1.775979995727539,-1.3865232467651367,-0.19175104796886444,22.0,0.0,1.8135309219360352,-1.4330148696899414,-0.19175104796886444,21.75,0.0,2.994060516357422,-1.512765884399414,-1.72575943171978,14.0,0.0,2.9751062393188477,-1.1751651763916016,-1.5340083837509155,19.0,0.0,2.9397010803222656,-0.9201765060424805,-1.5340083837509155,21.0,0.0,2.8449296951293945,-0.756382942199707,-0.7670041918754578,22.5,0.0,2.6836395263671875,-0.3390312194824219,-0.7670041918754578,19.75,0.0,2.7801990509033203,-0.18846988677978516,-0.7670041918754578,24.75,0.0,1.7806291580200195,-1.3643503189086914,0.0,19.0,0.0,1.8471479415893555,-1.3740062713623047,0.0,17.75,0.0,3.4160614013671875,-1.4895200729370117,0.0,13.0,,,,,,,,,,,,,,,,,,,,
0.0,5.577681021717414e-33,2.8625786304473877,-0.9607957601547241,3.1595785721385943e-33,-0.6725909113883972,-0.7893707752227783,-7.089022190093291e-33,-0.31978535652160645,-0.663414478302002,0.0,1.7949342727661133,-1.4308691024780273,0.19175104796886444,21.5,0.0,1.875758171081543,-1.4569759368896484,0.19175104796886444,23.25,0.0,2.9500722885131836,-1.635432243347168,0.9587552398443222,12.75,0.0,2.8717517852783203,-1.335740089416504,0.9587552398443222,17.0,0.0,2.4737119674682617,-0.9291172027587891,0.19175104796886444,22.5,0.0,2.805948257446289,-1.1322498321533203,0.5752531439065933,22.25,0.0,2.7469396591186523,-1.0010004043579102,0.3835020959377289,26.0,0.0,2.69472599029541,-0.8003711700439453,0.3835020959377289,26.5,,,,,,,,,,,,,,,,,,,,,,,,,,,,,,,,,,,
0.0,3.9854070672874225e-33,2.735546588897705,-1.0758943557739258,2.4411711588717224e-36,-0.8484849333763123,-0.8810020089149475,-8.683844763212659e-33,-0.5213044881820679,-0.6512856483459473,0.0,2.85494327545166,-1.577138900756836,-0.19175104796886444,16.0,0.0,2.972245216369629,-1.7101764678955078,-0.19175104796886444,15.5,0.0,2.122163772583008,-1.0557174682617188,0.19175104796886444,14.25,0.0,3.1435489654541016,-1.691579818725586,-0.19175104796886444,12.25,0.0,2.3092031478881836,-0.9859800338745117,-0.7670041918754578,22.0,0.0,2.4243593215942383,-0.9609460830688477,-1.72575943171978,26.25,0.0,2.5388002395629883,-0.9630918502807617,-1.72575943171978,25.75,0.0,2.6807785034179688,-1.0399818420410156,-0.3835020959377289,22.5,0.0,2.8231143951416016,-1.164078712463379,-0.3835020959377289,17.5,,,,,,,,,,,,,,,,,,,,,,,,,,,,,,
0.0,2.86489903611874e-33,2.610618829727173,-1.1362708806991577,-2.2790504677551665e-33,-1.022662878036499,-0.8388049602508545,-9.616756752959567e-33,-0.7230228781700134,-0.5042743682861328,0.0,2.6961565017700195,-1.7849206924438477,-1.342257335782051,17.0,0.0,2.795577049255371,-1.8947124481201172,-0.7670041918754578,12.75,0.0,2.6063919067382812,-1.4948844909667969,-1.342257335782051,14.25,0.0,2.684354782104492,-1.6418695449829102,-1.342257335782051,17.25,0.0,2.3528337478637695,-0.8897781372070312,-0.7670041918754578,18.75,0.0,2.5076866149902344,-0.9870529174804688,-0.7670041918754578,13.75,0.0,2.260923385620117,-0.5360841751098633,-0.5752531439065933,14.0,0.0,2.3249387741088867,-0.6787776947021484,-1.342257335782051,18.25,0.0,1.7881393432617188,-1.3811588287353516,0.0,25.0,0.0,1.8464326858520508,-1.4072656631469727,0.0,24.25,,,,,,,,,,,,,,,,,,,,,,,,,
0.0,1.904991451263214e-33,2.5086753368377686,-1.2019177675247192,-4.1704298781068506e-33,-1.0742675065994263,-0.8606470227241516,-1.02264327754853e-32,-0.6896722912788391,-0.4867740273475647,0.0,2.486586570739746,-1.2449026107788086,-0.3835020959377289,17.5,0.0,2.6807785034179688,-1.3353824615478516,-0.3835020959377289,17.25,0.0,2.7680397033691406,-1.3636350631713867,-0.3835020959377289,20.0,0.0,2.8148889541625977,-1.4373064041137695,-0.3835020959377289,15.75,0.0,2.104640007019043,-0.8736848831176758,-0.5752531439065933,21.0,0.0,2.287745475769043,-1.028895378112793,-0.7670041918754578,18.25,0.0,2.2104978561401367,-0.7874965667724609,-0.7670041918754578,21.5,0.0,1.8149614334106445,-1.358628273010254,0.0,25.25,,,,,,,,,,,,,,,,,,,,,,,,,,,,,,,,,,,
0.0,1.2060817240211412e-33,2.381058692932129,-1.2672828435897827,-5.509559654719324e-33,-1.1725579500198364,-0.8603882193565369,-1.0438145185540148e-32,-0.7282286882400513,-0.4337595999240875,0.0,2.2426843643188477,-1.2656450271606445,-0.5752531439065933,20.75,0.0,2.281665802001953,-1.3632774353027344,-1.342257335782051,18.5,0.0,2.00808048248291,-1.0067224502563477,-0.5752531439065933,16.5,0.0,2.228379249572754,-0.9570121765136719,-0.5752531439065933,18.0,0.0,1.8771886825561523,-1.2649297714233398,0.0,25.75,0.0,2.0374059677124023,-1.1701583862304688,0.0,25.5,,,,,,,,,,,,,,,,,,,,,,,,,,,,,,,,,,,,,,,,,,,,,
0.0,5.050722240771641e-34,2.2653355598449707,-1.2858237028121948,-6.685797505718506e-33,-1.2365732192993164,-0.7640786170959473,-1.0523579380273943e-32,-0.7348238825798035,-0.2940567135810852,0.0,2.0323991775512695,-1.0489225387573242,-0.19175104796886444,23.0,0.0,2.1468400955200195,-0.9899139404296875,-0.5752531439065933,24.25,0.0,2.2516250610351562,-1.0911226272583008,-1.5340083837509155,21.75,0.0,2.3338794708251953,-1.2356042861938477,-1.5340083837509155,18.25,0.0,1.8768310546875,-1.2488365173339844,0.0,26.0,,,,,,,,,,,,,,,,,,,,,,,,,,,,,,,,,,,,,,,,,,,,,,,,,,
0.0,-1.7895478041078878e-34,2.139409303665161,-1.3144261837005615,-7.695663967825964e-33,-1.2900151014328003,-0.7123464345932007,-1.0495223517796232e-32,-0.7059202194213867,-0.2277388572692871,0.0,1.8764734268188477,-1.1401176452636719,-0.7670041918754578,22.75,0.0,1.990199089050293,-1.1565685272216797,-0.7670041918754578,21.5,0.0,1.8721818923950195,-0.9205341339111328,-0.7670041918754578,15.25,0.0,2.2258758544921875,-1.074671745300293,-0.19175104796886444,15.25,,,,,,,,,,,,,,,,,,,,,,,,,,,,,,,,,,,,,,,,,,,,,,,,,,,,,,,
0.0,-8.591867289377607e-34,2.011368751525879,-1.3839834928512573,-8.562128935340734e-33,-1.3368897438049316,-0.7460553646087646,-1.037710911074164e-32,-0.6648485660552979,-0.2535625696182251,0.0,1.749873161315918,-1.313924789428711,-0.19175104796886444,19.0,0.0,1.9490718841552734,-1.2373924255371094,-0.5752531439065933,15.5,0.0,2.198338508605957,-1.1991262435913086,-0.5752531439065933,12.5,0.0,2.823472023010254,-1.5975236892700195,0.0,15.25,,,,,,,,,,,,,,,,,,,,,,,,,,,,,,,,,,,,,,,,,,,,,,,,,,,,,,,
0.0,-1.435378519373833e-33,1.9416347742080688,-1.4578518867492676,-9.20450133323459e-33,-1.2213469743728638,-0.8500229716300964,-1.0133520232628368e-32,-0.4082210063934326,-0.40962767601013184,0.0,1.8453598022460938,-1.2102127075195312,0.3835020959377289,26.0,0.0,1.9387006759643555,-1.2413263320922852,0.3835020959377289,23.75,0.0,1.8038749694824219,-1.1533498764038086,0.19175104796886444,15.0,0.0,1.9408464431762695,-1.2427568435668945,0.3835020959377289,23.5,0.0,2.1343231201171875,-1.2094974517822266,-0.3835020959377289,19.25,0.0,2.8302669525146484,-1.612544059753418,0.0,14.25,0.0,2.3975372314453125,-1.1719465255737305,0.0,17.75,,,,,,,,,,,,,,,,,,,,,,,,,,,,,,,,,,,,,,,,
0.0,-2.0528197841127016e-33,1.8467371463775635,-1.527206301689148,-9.77026309086551e-33,-1.1796786785125732,-0.8982049822807312,-9.851287712415783e-33,-0.294011652469635,-0.45610934495925903,0.0,1.7802715301513672,-1.3579130172729492,0.19175104796886444,21.5,0.0,1.793503761291504,-1.1773109436035156,0.19175104796886444,18.25,0.0,1.7995834350585938,-1.225590705871582,0.19175104796886444,25.75,0.0,2.292752265930176,-1.3310909271240234,0.0,14.5,0.0,2.19118595123291,-1.1447668075561523,0.0,23.75,,,,,,,,,,,,,,,,,,,,,,,,,,,,,,,,,,,,,,,,,,,,,,,,,,
0.0,-2.548183205453791e-33,1.7615381479263306,-1.580472707748413,-1.0071028748886747e-32,-1.1279455423355103,-0.9003397822380066,-9.415411468395002e-33,-0.19687172770500183,-0.4430472254753113,0.0,1.7462968826293945,-1.3321638107299805,-0.19175104796886444,23.5,0.0,1.71661376953125,-1.4069080352783203,0.19175104796886444,20.0,0.0,1.7724037170410156,-1.1937618255615234,0.19175104796886444,17.0,0.0,2.3038387298583984,-1.3017654418945312,0.0,14.0,0.0,2.1740198135375977,-1.1619329452514648,0.0,23.25,,,,,,,,,,,,,,,,,,,,,,,,,,,,,,,,,,,,,,,,,,,,,,,,,,
0.0,-1.6786943246392786e-35,3.0252513885498047,-0.5391941070556641,-1.6830743038341638e-34,-0.28680890798568726,-0.4345133602619171,-7.401232135098122e-35,-0.33131587505340576,-0.27845293283462524,0.0,3.14176082611084,-0.9444952011108398,-0.7670041918754578,20.0,0.0,3.1585693359375,-1.165151596069336,-0.5752531439065933,15.25,0.0,3.056645393371582,-0.5775690078735352,-0.7670041918754578,18.0,0.0,2.9146671295166016,-0.15485286712646484,-0.19175104796886444,20.0,0.0,2.853512763977051,-0.0826120376586914,-0.19175104796886444,18.5,0.0,3.168940544128418,-0.9008646011352539,0.0,20.75,,,,,,,,,,,,,,,,,,,,,,,,,,,,,,,,,,,,,,,,,,,,,
0.0,-2.549318935034777e-35,2.986377000808716,-0.6127203106880188,-1.650265843242981e-34,-0.3624942898750305,-0.5035872459411621,-6.750584532480966e-35,-0.39803963899612427,-0.3059597909450531,0.0,3.062725067138672,-1.2313127517700195,-0.5752531439065933,21.5,0.0,3.1113624572753906,-1.2913942337036133,-0.5752531439065933,18.25,0.0,3.025174140930176,-0.722050666809082,-0.3835020959377289,18.75,0.0,2.8706789016723633,-0.2181529998779297,-0.3835020959377289,18.75,0.0,2.911806106567383,-0.2396106719970703,-0.3835020959377289,21.5,,,,,,,,,,,,,,,,,,,,,,,,,,,,,,,,,,,,,,,,,,,,,,,,,,
0.0,-3.001995610640449e-35,2.918792486190796,-0.6557812690734863,-1.5609134641067317e-34,-0.4933091402053833,-0.5055174827575684,-5.784541119661762e-35,-0.5281457304954529,-0.2682110667228699,0.0,3.0934810638427734,-1.408696174621582,-1.342257335782051,14.0,0.0,3.025531768798828,-1.222372055053711,-1.342257335782051,18.25,0.0,2.927541732788086,-0.8908510208129883,-0.3835020959377289,18.75,0.0,2.7437210083007812,-0.2900362014770508,-0.5752531439065933,16.5,0.0,2.7916431427001953,-0.32508373260498047,-0.3835020959377289,23.75,0.0,2.829909324645996,-0.4037618637084961,-0.3835020959377289,22.75,0.0,3.0906200408935547,-1.1368989944458008,0.0,22.75,0.0,3.342747688293457,-1.225590705871582,0.0,12.5,,,,,,,,,,,,,,,,,,,,,,,,,,,,,,,,,,,
0.0,-3.264145200170094e-35,2.8238635063171387,-0.7888280153274536,-1.4468363291342366e-34,-0.6894971132278442,-0.6460459232330322,-4.7111629618064276e-35,-0.7325820922851562,-0.3401707708835602,0.0,3.0530691146850586,-1.4805793762207031,0.19175104796886444,15.25,0.0,2.8438568115234375,-1.1283159255981445,-1.5340083837509155,22.0,0.0,2.965092658996582,-1.3153553009033203,-1.9175104796886444,19.5,0.0,2.748727798461914,-0.9680986404418945,-1.5340083837509155,24.25,0.0,2.719402313232422,-0.7960796356201172,-0.5752531439065933,22.75,0.0,2.6772022247314453,-0.594019889831543,-0.5752531439065933,15.25,,,,,,,,,,,,,,,,,,,,,,,,,,,,,,,,,,,,,,,,,,,,,
0.0,-3.156702261440052e-35,2.686596632003784,-1.0012950897216797,-1.2923448029843837e-34,-0.8814549446105957,-0.9260420203208923,-3.4621178490971304e-35,-0.8524108529090881,-0.5428779125213623,0.0,1.8475055694580078,-1.3543367385864258,-0.19175104796886444,15.25,0.0,2.087116241455078,-1.2727975845336914,-0.19175104796886444,18.25,0.0,2.9050111770629883,-1.7938613891601562,-0.19175104796886444,12.25,0.0,2.9207468032836914,-1.3772249221801758,-0.7670041918754578,13.75,0.0,2.5881528854370117,-0.9648799896240234,-0.7670041918754578,21.75,0.0,2.657175064086914,-1.1562108993530273,-0.7670041918754578,20.5,0.0,2.7762651443481445,-1.2384653091430664,-0.7670041918754578,15.75,0.0,2.5058984756469727,-0.7721185684204102,-0.7670041918754578,21.0,0.0,1.8121004104614258,-1.2917518615722656,0.0,15.25,0.0,2.0366907119750977,-1.223444938659668,0.0,14.0,0.0,3.083467483520508,-1.4619827270507812,0.0,20.75,0.0,3.1249523162841797,-1.6440153121948242,0.0,16.0,0.0,3.046274185180664,-1.2867450714111328,0.0,20.75,0.0,2.9178857803344727,-0.3300905227661133,0.0,22.5,,,,,
0.0,-3.1758918623341153e-35,2.5407965183258057,-1.1365236043930054,-1.157907164541811e-34,-1.0739929676055908,-1.0361367464065552,-2.3927771527346042e-35,-0.9751231074333191,-0.5765683054924011,0.0,1.8600225448608398,-1.2738704681396484,0.19175104796886444,19.5,0.0,2.6525259017944336,-1.4569759368896484,-1.9175104796886444,14.75,0.0,2.7827024459838867,-1.6661882400512695,-1.72575943171978,13.0,0.0,2.209782600402832,-1.0696649551391602,0.19175104796886444,21.0,0.0,2.464413642883301,-1.1472702026367188,-1.1505062878131866,25.25,0.0,2.5502443313598633,-1.2309551239013672,-0.3835020959377289,18.5,0.0,2.4036169052124023,-1.0371208190917969,-0.9587552398443222,24.75,0.0,1.845717430114746,-1.2499094009399414,0.0,15.25,0.0,2.224445343017578,-1.0707378387451172,0.0,15.75,0.0,3.100275993347168,-1.416921615600586,0.0,20.0,0.0,3.144979476928711,-1.6057491302490234,0.0,14.25,0.0,3.0319690704345703,-1.3393163681030273,0.0,20.0,0.0,2.7616024017333984,-0.9058713912963867,0.0,21.0,,,,,,,,,,
0.0,-3.269309224913428e-35,2.432023763656616,-1.2216317653656006,-1.0411090586125248e-34,-1.144349455833435,-1.0701539516448975,-1.501731054359861e-35,-0.9303665161132812,-0.5683161616325378,0.0,2.478361129760742,-1.422286033630371,-0.3835020959377289,19.0,0.0,2.6096105575561523,-1.5045404434204102,-0.3835020959377289,13.0,0.0,2.329230308532715,-1.0907649993896484,-0.3835020959377289,22.0,0.0,2.404332160949707,-1.2695789337158203,-0.3835020959377289,21.75,0.0,2.2770166397094727,-0.8629560470581055,-0.3835020959377289,20.75,0.0,2.2208690643310547,-0.7241964340209961,-0.3835020959377289,16.5,0.0,3.0777454376220703,-1.4519691467285156,0.0,20.25,0.0,3.108501434326172,-1.6565322875976562,0.0,13.75,0.0,3.0394792556762695,-1.329660415649414,0.0,20.5,,,,,,,,,,,,,,,,,,,,,,,,,,,,,,
0.0,-3.336554045059564e-35,2.2975757122039795,-1.2955330610275269,-9.236266060453063e-35,-1.2666784524917603,-1.0535246133804321,-6.427343962005547e-36,-0.968605637550354,-0.49427521228790283,0.0,2.122163772583008,-1.1748075485229492,-0.7670041918754578,23.5,0.0,2.189755439758301,-1.2770891189575195,-0.7670041918754578,24.0,0.0,2.290964126586914,-1.342177391052246,-0.7670041918754578,20.25,0.0,2.453327178955078,-1.3729333877563477,-1.5340083837509155,12.25,0.0,2.0856857299804688,-0.973820686340332,-0.19175104796886444,20.5,0.0,3.0519962310791016,-1.5145540237426758,0.0,19.0,0.0,3.1059980392456055,-1.6769170761108398,0.0,13.25,,,,,,,,,,,,,,,,,,,,,,,,,,,,,,,,,,,,,,,,
0.0,-3.4393414981062466e-35,2.1421210765838623,-1.4367278814315796,-8.195618934386213e-35,-1.3863637447357178,-1.1838301420211792,6.734031471284414e-37,-0.9693799614906311,-0.5830260515213013,0.0,1.7377138137817383,-1.415848731994629,0.19175104796886444,20.75,0.0,1.834273338317871,-1.478433609008789,-0.19175104796886444,20.75,0.0,2.0606517791748047,-1.4433860778808594,-0.19175104796886444,18.75,0.0,2.3921728134155273,-1.2220144271850586,-0.5752531439065933,15.5,0.0,3.0688047409057617,-1.5202760696411133,0.0,18.5,0.0,3.12960147857666,-1.6475915908813477,0.0,13.0,,,,,,,,,,,,,,,,,,,,,,,,,,,,,,,,,,,,,,,,,,,,,
0.0,-3.380584573692513e-35,2.0295419692993164,-1.489585280418396,-7.004567650514762e-35,-1.4139502048492432,-1.1265028715133667,8.341227987854702e-36,-0.8955618739128113,-0.48810315132141113,0.0,1.8378496170043945,-1.3418197631835938,-0.5752531439065933,22.0,0.0,1.9108057022094727,-1.3257265090942383,-0.5752531439065933,22.0,0.0,2.1718740463256836,-1.176595687866211,-0.19175104796886444,17.25,0.0,2.4633407592773438,-1.0170936584472656,-0.19175104796886444,14.25,,,,,,,,,,,,,,,,,,,,,,,,,,,,,,,,,,,,,,,,,,,,,,,,,,,,,,,
0.0,-3.2683661891622555e-35,1.9767303466796875,-1.5605058670043945,-5.869252477205297e-35,-1.2897778749465942,-1.1596531867980957,1.4947205621719003e-35,-0.6395552754402161,-0.5360785722732544,0.0,1.8417835235595703,-1.1751651763916016,0.19175104796886444,17.5,0.0,2.054929733276367,-1.1497735977172852,0.19175104796886444,12.75,0.0,2.273082733154297,-1.273512840270996,0.7670041918754578,16.0,0.0,2.4232864379882812,-1.1816024780273438,0.7670041918754578,16.0,0.0,3.0766725540161133,-1.5674829483032227,0.0,15.75,,,,,,,,,,,,,,,,,,,,,,,,,,,,,,,,,,,,,,,,,,,,,,,,,,
0.0,4.184921811767493e-40,3.01163911819458,-0.5688965916633606,1.0134064377135288e-39,-0.2630173861980438,-0.3331793248653412,5.562454254137361e-41,-0.25229373574256897,-0.22108344733715057,0.0,3.1946897506713867,-1.1948347091674805,-0.19175104796886444,21.0,0.0,3.262639045715332,-1.3446807861328125,-0.19175104796886444,14.25,0.0,3.1728744506835938,-0.870823860168457,-0.19175104796886444,22.25,0.0,2.9844045639038086,-0.5446672439575195,-0.3835020959377289,17.75,0.0,3.097414970397949,-0.6269216537475586,-0.3835020959377289,21.25,0.0,3.0355453491210938,-0.26679039001464844,0.0,26.0,0.0,2.9268264770507812,-0.030755996704101562,0.0,28.5,,,,,,,,,,,,,,,,,,,,,,,,,,,,,,,,,,,,,,,,
0.0,3.829650612107222e-40,2.9581708908081055,-0.6591991186141968,8.361253663948675e-40,-0.34077441692352295,-0.44509151577949524,-6.863419748416522e-41,-0.31278717517852783,-0.2918194532394409,0.0,2.86710262298584,-1.090407371520996,-0.19175104796886444,22.0,0.0,2.990841865539551,-1.1726617813110352,-0.3835020959377289,19.0,0.0,3.0781030654907227,-1.3740062713623047,-0.7670041918754578,12.0,0.0,2.8177499771118164,-0.7406473159790039,-0.19175104796886444,23.25,0.0,2.7805566787719727,-0.41306018829345703,-0.19175104796886444,22.5,0.0,2.7322769165039062,-0.1308917999267578,-0.3835020959377289,16.0,0.0,3.024458885192871,-0.22923946380615234,0.0,25.75,0.0,2.9211044311523438,-0.027179718017578125,0.0,28.25,,,,,,,,,,,,,,,,,,,,,,,,,,,,,,,,,,,
0.0,3.5086411598996932e-40,2.877166748046875,-0.7987940907478333,6.693666452448213e-40,-0.5029847621917725,-0.6100476980209351,-1.92625289503018e-40,-0.4983592629432678,-0.38409921526908875,0.0,2.7751922607421875,-1.375436782836914,-1.1505062878131866,23.0,0.0,2.871394157409668,-1.4591217041015625,-1.1505062878131866,20.75,0.0,3.015875816345215,-1.4698505401611328,-0.5752531439065933,13.0,0.0,2.760171890258789,-1.051783561706543,-0.3835020959377289,22.25,0.0,2.734065055847168,-0.6934404373168945,-0.3835020959377289,20.5,0.0,2.7000904083251953,-0.28502941131591797,-0.3835020959377289,14.75,0.0,3.0219554901123047,-0.27358531951904297,0.0,26.0,0.0,2.9261112213134766,-0.04863739013671875,0.0,28.25,,,,,,,,,,,,,,,,,,,,,,,,,,,,,,,,,,,
0.0,3.411461111398767e-40,2.7909140586853027,-0.8518031239509583,5.487526825249913e-40,-0.6438767910003662,-0.6126621961593628,-2.6753310021196543e-40,-0.6291007399559021,-0.33449265360832214,0.0,1.777052879333496,-1.4126300811767578,-0.19175104796886444,14.25,0.0,1.8739700317382812,-1.468062400817871,-0.19175104796886444,16.0,0.0,2.678990364074707,-1.1894702911376953,-1.1505062878131866,20.5,0.0,2.772688865661621,-1.214146614074707,-1.1505062878131866,16.0,0.0,2.6793479919433594,-0.8561611175537109,-0.5752531439065933,19.5,0.0,2.6335716247558594,-0.3733634948730469,-0.5752531439065933,15.75,0.0,1.7695426940917969,-1.4362335205078125,0.0,16.25,0.0,1.8857717514038086,-1.4026165008544922,0.0,16.5,0.0,3.026604652404785,-0.33724308013916016,0.0,25.0,0.0,2.9282569885253906,-0.11801719665527344,0.0,28.0,,,,,,,,,,,,,,,,,,,,,,,,,
0.0,2.75339733956719e-40,2.6341068744659424,-0.9802680015563965,3.566668929307384e-40,-0.9242042899131775,-0.7183798551559448,-3.9543381494628445e-40,-0.9175770878791809,-0.3560192286968231,0.0,1.7995834350585938,-1.3221502304077148,-0.19175104796886444,15.25,0.0,2.585291862487793,-1.2252330780029297,-0.7670041918754578,22.75,0.0,2.718329429626465,-1.2466907501220703,-1.5340083837509155,17.0,0.0,2.889275550842285,-1.3622045516967773,-1.342257335782051,12.5,0.0,2.294182777404785,-0.9748935699462891,-1.1505062878131866,14.5,0.0,2.5398731231689453,-1.1208057403564453,-1.1505062878131866,25.25,0.0,2.5309324264526367,-0.8804798126220703,-1.1505062878131866,21.75,0.0,1.740574836730957,-1.3922452926635742,0.0,18.25,0.0,1.956939697265625,-1.3500452041625977,0.0,16.5,,,,,,,,,,,,,,,,,,,,,,,,,,,,,,
0.0,2.39959750329446e-40,2.4934260845184326,-1.0134376287460327,2.2470101135141307e-40,-1.1366795301437378,-0.647587776184082,-4.651442096510511e-40,-1.0954173803329468,-0.22784006595611572,0.0,2.4486780166625977,-1.214146614074707,-0.9587552398443222,23.5,0.0,2.5169849395751953,-1.2896060943603516,-0.9587552398443222,20.0,0.0,2.3692846298217773,-1.0714530944824219,-1.1505062878131866,22.0,0.0,2.206563949584961,-0.8150339126586914,-1.9175104796886444,15.5,0.0,2.327442169189453,-0.7613897323608398,-1.9175104796886444,20.5,0.0,1.8149614334106445,-1.3260841369628906,0.0,22.75,0.0,2.054929733276367,-1.168370246887207,0.0,21.75,0.0,2.9278993606567383,-0.9813308715820312,0.0,17.0,0.0,2.87783145904541,-0.3991127014160156,0.0,23.5,,,,,,,,,,,,,,,,,,,,,,,,,,,,,,
0.0,1.973953094755797e-40,2.355156421661377,-1.1197190284729004,9.393183866062114e-41,-1.2626453638076782,-0.7529098391532898,-5.196995614641449e-40,-1.0912439823150635,-0.31038033962249756,0.0,2.1779537200927734,-1.2860298156738281,-0.7670041918754578,19.75,0.0,2.3424625396728516,-1.365065574645996,-0.7670041918754578,19.0,0.0,2.508401870727539,-1.363992691040039,-1.1505062878131866,14.25,0.0,2.1135807037353516,-0.893712043762207,-0.3835020959377289,20.5,0.0,2.155423164367676,-0.9688138961791992,-0.3835020959377289,21.75,0.0,2.6929378509521484,-1.1676549911499023,0.0,20.5,0.0,2.9218196868896484,-0.9984970092773438,0.0,17.5,0.0,3.0437707901000977,-1.1093616485595703,0.0,16.75,,,,,,,,,,,,,,,,,,,,,,,,,,,,,,,,,,,
0.0,1.4514509363630023e-40,2.2216789722442627,-1.2417269945144653,-3.61941380350457e-41,-1.3288837671279907,-0.9075284004211426,-5.661484016611196e-40,-0.9927618503570557,-0.4595016539096832,0.0,2.078890800476074,-1.250624656677246,-0.5752531439065933,22.75,0.0,2.1611452102661133,-1.324295997619629,-0.19175104796886444,23.5,0.0,2.2319555282592773,-1.4262199401855469,-0.19175104796886444,18.0,0.0,2.3932456970214844,-1.4415979385375977,-0.19175104796886444,12.5,0.0,1.9462108612060547,-0.7953643798828125,-0.3835020959377289,12.25,0.0,2.033829689025879,-0.9047985076904297,-0.3835020959377289,19.5,0.0,2.6328563690185547,-1.279592514038086,0.0,18.75,0.0,3.0237436294555664,-1.1343955993652344,0.0,16.5,0.0,3.1381845474243164,-1.2352466583251953,0.0,13.25,0.0,2.9082298278808594,-1.0353326797485352,0.0,17.5,,,,,,,,,,,,,,,,,,,,,,,,,
0.0,4.0637655465419695e-44,3.088857889175415,-0.4723142683506012,2.228064558276459e-43,-0.28644633293151855,-0.48822036385536194,9.80908925027372e-44,-0.32102957367897034,-0.41633620858192444,0.0,3.1653642654418945,-0.9580850601196289,-0.5752531439065933,22.25,0.0,3.2401084899902344,-1.063227653503418,-0.5752531439065933,21.0,0.0,3.369927406311035,-1.1054277420043945,-0.3835020959377289,13.5,0.0,3.077387809753418,-0.4863739013671875,-0.5752531439065933,21.25,0.0,2.970457077026367,-0.13518333435058594,-0.5752531439065933,21.0,0.0,2.886056900024414,-0.031828880310058594,-0.5752531439065933,16.75,,,,,,,,,,,,,,,,,,,,,,,,,,,,,,,,,,,,,,,,,,,,,
0.0,4.764414778704378e-44,3.032588243484497,-0.4212406277656555,2.129973665773722e-43,-0.3718145489692688,-0.3475014269351959,8.547920632381384e-44,-0.3860265016555786,-0.2601787745952606,0.0,3.0115842819213867,-0.5843639373779297,-0.3835020959377289,15.25,0.0,3.188610076904297,-0.685572624206543,-0.3835020959377289,15.5,0.0,2.741575241088867,0.06687641143798828,-0.5752531439065933,13.75,0.0,2.8595924377441406,-0.010013580322265625,-0.5752531439065933,19.5,0.0,2.8030872344970703,0.09012222290039062,-0.5752531439065933,20.25,,,,,,,,,,,,,,,,,,,,,,,,,,,,,,,,,,,,,,,,,,,,,,,,,,
0.0,5.324934164434305e-44,2.9992709159851074,-0.5591984987258911,2.0178697886277366e-43,-0.4106234908103943,-0.5522533655166626,7.286752014489049e-44,-0.39006030559539795,-0.40874072909355164,0.0,3.0777454376220703,-1.3797283172607422,-0.19175104796886444,16.75,0.0,3.0777454376220703,-1.027822494506836,-0.19175104796886444,21.0,0.0,3.0444860458374023,-0.7799863815307617,-0.19175104796886444,21.25,0.0,2.9633045196533203,-0.5700588226318359,-0.5752531439065933,18.0,0.0,2.8574466705322266,-0.3236532211303711,-0.5752531439065933,13.5,,,,,,,,,,,,,,,,,,,,,,,,,,,,,,,,,,,,,,,,,,,,,,,,,,
0.0,5.184804318001823e-44,2.9427037239074707,-0.7490522861480713,1.807675018979014e-43,-0.4949314594268799,-0.8227644562721252,5.465064010866787e-44,-0.44787073135375977,-0.5956306457519531,0.0,2.9615163803100586,-1.397252082824707,-0.9587552398443222,22.5,0.0,3.0705928802490234,-1.4244318008422852,0.19175104796886444,18.0,0.0,3.196120262145996,-1.4662742614746094,0.19175104796886444,12.25,0.0,2.865314483642578,-1.2377500534057617,-0.9587552398443222,22.5,0.0,2.831697463989258,-0.7545948028564453,-0.19175104796886444,21.75,0.0,2.7666091918945312,-0.4895925521850586,-0.19175104796886444,21.25,0.0,2.7025938034057617,-0.3426074981689453,-0.3835020959377289,15.5,0.0,3.360629081726074,-1.2445449829101562,0.0,15.75,0.0,2.9625892639160156,-0.17595291137695312,0.0,23.75,,,,,,,,,,,,,,,,,,,,,,,,,,,,,,
0.0,5.044674471569341e-44,2.8373961448669434,-0.8937811851501465,1.5834672646870433e-43,-0.7047577500343323,-0.9527149796485901,3.5032461608120427e-44,-0.6765105724334717,-0.6247802972793579,0.0,2.7741193771362305,-1.3335943222045898,-1.342257335782051,15.75,0.0,2.9085874557495117,-1.4927387237548828,-1.342257335782051,13.25,0.0,3.0766725540161133,-1.532435417175293,-0.19175104796886444,13.75,0.0,2.721548080444336,-1.1025667190551758,-1.9175104796886444,18.0,0.0,2.6532411575317383,-0.8497238159179688,-0.5752531439065933,16.75,0.0,2.5491714477539062,-0.708460807800293,-0.5752531439065933,15.5,0.0,1.8371343612670898,-1.3575553894042969,0.0,13.0,0.0,2.1153688430786133,-1.2230873107910156,0.0,16.5,0.0,2.40933895111084,-0.9759664535522461,0.0,17.75,0.0,3.183603286743164,-1.2831687927246094,0.0,18.0,0.0,3.3599138259887695,-1.2009143829345703,0.0,16.0,0.0,2.9511451721191406,-0.1634359359741211,0.0,23.5,,,,,,,,,,,,,,,
0.0,4.344025239406933e-44,2.689462184906006,-1.0089447498321533,1.3312335411085762e-43,-0.9446048736572266,-1.0154494047164917,1.401298464324817e-44,-0.8898972272872925,-0.598355770111084,0.0,1.8843412399291992,-1.3300180435180664,-0.19175104796886444,12.25,0.0,2.367854118347168,-0.8962154388427734,-1.1505062878131866,18.5,0.0,2.474069595336914,-0.9409189224243164,-1.1505062878131866,24.5,0.0,2.5287866592407227,-1.0786056518554688,-1.342257335782051,26.0,0.0,2.6292800903320312,-1.1597871780395508,-0.7670041918754578,23.75,0.0,2.797365188598633,-1.1583566665649414,-0.9587552398443222,18.25,0.0,2.941131591796875,-1.2749433517456055,-0.19175104796886444,14.5,0.0,1.747727394104004,-1.394033432006836,0.0,19.0,0.0,1.969456672668457,-1.3800859451293945,0.0,17.75,0.0,3.1585693359375,-1.3257265090942383,0.0,17.5,0.0,3.371715545654297,-1.1333227157592773,0.0,15.0,,,,,,,,,,,,,,,,,,,,
0.0,3.783505853677006e-44,2.539828062057495,-1.096747636795044,1.064986832886861e-43,-1.1619410514831543,-1.012412428855896,-1.401298464324817e-45,-1.0600985288619995,-0.5155052542686462,0.0,1.9458532333374023,-1.1072158813476562,-0.19175104796886444,19.0,0.0,2.469778060913086,-1.203775405883789,-1.1505062878131866,20.75,0.0,2.615690231323242,-1.2259483337402344,-1.1505062878131866,17.25,0.0,2.690434455871582,-1.4126300811767578,-0.5752531439065933,15.25,0.0,2.8628110885620117,-1.48773193359375,-0.7670041918754578,12.5,0.0,2.3832321166992188,-0.9777545928955078,-1.342257335782051,20.5,0.0,2.28273868560791,-0.7764101028442383,-1.9175104796886444,19.75,0.0,1.809239387512207,-1.318216323852539,0.0,18.5,0.0,2.176523208618164,-1.099705696105957,0.0,19.0,0.0,3.0634403228759766,-1.5149116516113281,0.0,15.75,0.0,3.288388252258301,-1.3632774353027344,0.0,13.0,,,,,,,,,,,,,,,,,,,,
0.0,3.6433760072445244e-44,2.4079525470733643,-1.2038016319274902,8.96831017167883e-44,-1.2712777853012085,-1.0814208984375,-1.2611686178923354e-44,-1.048160433769226,-0.540003776550293,0.0,2.2079944610595703,-1.2527704238891602,-0.5752531439065933,21.0,0.0,2.3102760314941406,-1.3922452926635742,-0.7670041918754578,19.5,0.0,2.544522285461426,-1.3571977615356445,-0.7670041918754578,14.5,0.0,2.741575241088867,-1.3893842697143555,0.3835020959377289,13.5,0.0,2.1561384201049805,-0.8232593536376953,-0.5752531439065933,19.25,0.0,2.1954774856567383,-0.9430646896362305,-0.5752531439065933,21.25,0.0,1.9294023513793945,-1.2052059173583984,0.0,20.5,0.0,2.118229866027832,-1.1637210845947266,0.0,22.5,,,,,,,,,,,,,,,,,,,,,,,,,,,,,,,,,,,
0.0,3.5032461608120427e-44,2.267347574234009,-1.2906243801116943,7.42688186092153e-44,-1.3869960308074951,-1.0912058353424072,-2.1019476964872256e-44,-1.0587725639343262,-0.5004745721817017,0.0,2.0803213119506836,-1.1637210845947266,-0.5752531439065933,19.0,0.0,2.2083520889282227,-1.2853145599365234,-1.342257335782051,19.25,0.0,2.3610591888427734,-1.3167858123779297,-0.7670041918754578,17.25,0.0,1.9733905792236328,-1.0281801223754883,-0.3835020959377289,18.5,0.0,2.502322196960449,-1.3446807861328125,-0.19175104796886444,12.5,0.0,1.9848346710205078,-1.0710954666137695,0.0,20.75,0.0,2.155423164367676,-1.0939836502075195,0.0,21.75,,,,,,,,,,,,,,,,,,,,,,,,,,,,,,,,,,,,,,,,
0.0,3.2229864679470793e-44,2.164499282836914,-1.3406542539596558,5.74532370373175e-44,-1.3984122276306152,-1.0454072952270508,-2.942726775082116e-44,-0.9496221542358398,-0.43275997042655945,0.0,1.9419193267822266,-1.1283159255981445,-0.5752531439065933,21.75,0.0,2.0710229873657227,-1.153707504272461,-0.5752531439065933,21.75,0.0,2.282381057739258,-1.1211633682250977,-0.3835020959377289,21.0,0.0,2.428293228149414,-1.1419057846069336,-0.3835020959377289,18.75,0.0,2.5752782821655273,-1.1368989944458008,-0.3835020959377289,13.5,0.0,1.9150972366333008,-1.181960105895996,0.0,22.0,0.0,2.133607864379883,-1.1311769485473633,0.0,22.0,,,,,,,,,,,,,,,,,,,,,,,,,,,,,,,,,,,,,,,,
0.0,-1.401298464324817e-45,2.999851942062378,-1.18941068649292,5.605193857299268e-45,-0.49808502197265625,-0.8199347853660583,0.0,-0.5864238739013672,-0.2396513670682907,0.0,2.9658079147338867,-1.7005205154418945,-0.7670041918754578,19.0,0.0,2.9658079147338867,-1.5581846237182617,-0.7670041918754578,18.75,0.0,3.0105113983154297,-0.7055997848510742,-0.7670041918754578,14.0,0.0,2.845644950866699,-0.08118152618408203,0.19175104796886444,18.25,0.0,2.8706789016723633,-0.07295608520507812,-0.3835020959377289,19.25,0.0,3.2694339752197266,-1.330733299255371,0.0,16.0,0.0,3.2140016555786133,-1.1218786239624023,0.0,23.25,0.0,3.1911134719848633,-0.9444952011108398,0.0,24.75,,,,,,,,,,,,,,,,,,,,,,,,,,,,,,,,,,,
0.0,-1.401298464324817e-45,2.9810609817504883,-1.0629159212112427,5.605193857299268e-45,-0.5304353833198547,-0.5127322673797607,0.0,-0.6053271293640137,0.03584684431552887,0.0,3.0434131622314453,-1.5377998352050781,-0.7670041918754578,16.25,0.0,3.0777454376220703,-1.146554946899414,-0.7670041918754578,18.0,0.0,2.9990673065185547,-0.6948709487915039,-0.7670041918754578,17.25,0.0,2.8553009033203125,-0.40662288665771484,-0.3835020959377289,17.0,0.0,2.8989315032958984,-0.39947032928466797,-0.3835020959377289,19.75,0.0,3.2747983932495117,-1.302480697631836,0.0,14.75,0.0,3.186821937561035,-0.9745359420776367,0.0,24.25,0.0,3.211498260498047,-1.1268854141235352,0.0,22.0,,,,,,,,,,,,,,,,,,,,,,,,,,,,,,,,,,,
0.0,-1.401298464324817e-45,2.9309470653533936,-1.0237815380096436,5.605193857299268e-45,-0.5843546986579895,-0.3714117407798767,0.0,-0.6086615920066833,0.14684775471687317,0.0,2.7676820755004883,-1.4798641204833984,-1.342257335782051,22.0,0.0,2.960085868835449,-1.3861656188964844,-0.19175104796886444,23.5,0.0,3.071308135986328,-1.3697147369384766,-0.19175104796886444,17.0,0.0,2.745509147644043,-0.3762245178222656,-0.3835020959377289,14.75,0.0,2.811312675476074,-0.3644227981567383,-0.3835020959377289,23.5,0.0,2.843141555786133,-0.3991127014160156,-0.3835020959377289,24.0,0.0,3.1453371047973633,-1.1951923370361328,0.0,20.75,0.0,3.114938735961914,-1.1304616928100586,0.0,25.25,0.0,2.8492212295532227,-0.25212764739990234,0.0,24.25,,,,,,,,,,,,,,,,,,,,,,,,,,,,,,
0.0,-1.401298464324817e-45,2.8287925720214844,-1.1031785011291504,5.605193857299268e-45,-0.7042691707611084,-0.42180800437927246,0.0,-0.6545195579528809,0.09520561993122101,0.0,2.7294158935546875,-1.296401023864746,-0.7670041918754578,17.5,0.0,3.096342086791992,-1.4390945434570312,-0.19175104796886444,12.5,0.0,2.5016069412231445,-1.0131597518920898,-0.5752531439065933,17.25,0.0,2.652883529663086,-1.129746437072754,-0.3835020959377289,22.75,0.0,2.9954910278320312,-1.2409687042236328,-0.5752531439065933,13.25,0.0,2.6314258575439453,-0.9748935699462891,-0.3835020959377289,22.0,0.0,1.8095970153808594,-1.4641284942626953,0.0,19.25,0.0,1.900792121887207,-1.4584064483642578,0.0,22.5,0.0,2.8270483016967773,-0.32901763916015625,0.0,25.0,0.0,2.875685691833496,-0.2764463424682617,0.0,26.0,,,,,,,,,,,,,,,,,,,,,,,,,
0.0,-1.401298464324817e-45,2.656130790710449,-1.1761502027511597,5.605193857299268e-45,-0.9258249998092651,-0.4504774510860443,0.0,-0.7995588779449463,0.07578092068433762,0.0,1.787424087524414,-1.330733299255371,-0.19175104796886444,15.5,0.0,2.0388364791870117,-1.3228654861450195,-0.19175104796886444,14.75,0.0,2.4608373641967773,-1.033186912536621,-0.9587552398443222,20.0,0.0,2.5827884674072266,-0.9634494781494141,-0.9587552398443222,22.75,0.0,2.599954605102539,-1.168370246887207,-0.5752531439065933,18.75,0.0,2.7565956115722656,-1.2059211730957031,-1.5340083837509155,13.0,0.0,1.8095970153808594,-1.4072656631469727,0.0,21.0,0.0,1.9054412841796875,-1.430511474609375,0.0,22.5,0.0,2.2133588790893555,-1.279592514038086,0.0,20.5,0.0,2.986907958984375,-0.7349252700805664,0.0,17.25,0.0,2.8220415115356445,-0.31256675720214844,0.0,25.0,0.0,2.8721094131469727,-0.27000904083251953,0.0,25.75,,,,,,,,,,,,,,,
0.0,-1.401298464324817e-45,2.540133237838745,-1.2044979333877563,5.605193857299268e-45,-1.0325230360031128,-0.41436678171157837,0.0,-0.8231719136238098,0.10192152857780457,0.0,1.89971923828125,-1.237034797668457,-0.19175104796886444,15.5,0.0,2.776622772216797,-1.6472339630126953,-1.1505062878131866,13.0,0.0,2.533078193664551,-1.3343095779418945,0.19175104796886444,18.75,0.0,2.695798873901367,-1.399397850036621,-1.1505062878131866,14.5,0.0,2.3202896118164062,-0.8962154388427734,-1.342257335782051,19.75,0.0,2.496957778930664,-1.078963279724121,0.19175104796886444,23.5,0.0,2.467632293701172,-0.8425712585449219,-1.9175104796886444,23.5,0.0,1.8035173416137695,-1.4001131057739258,0.0,21.25,0.0,1.9429922103881836,-1.3986825942993164,0.0,22.75,0.0,2.3435354232788086,-1.110076904296875,0.0,21.75,0.0,3.1163692474365234,-1.306772232055664,0.0,16.0,0.0,2.925753593444824,-0.859379768371582,0.0,16.5,0.0,2.7894973754882812,-0.42378902435302734,0.0,25.0,,,,,,,,,,
0.0,-1.401298464324817e-45,2.4910130500793457,-1.1977773904800415,5.605193857299268e-45,-0.9890300631523132,-0.34602105617523193,0.0,-0.6725441217422485,0.12756317853927612,0.0,2.456545829772949,-1.1533498764038086,-0.5752531439065933,20.25,0.0,2.627134323120117,-1.1905431747436523,-0.19175104796886444,17.0,0.0,2.75266170501709,-1.4101266860961914,-0.5752531439065933,13.75,0.0,2.935051918029785,-1.4948844909667969,0.3835020959377289,14.25,0.0,3.0434131622314453,-1.5882253646850586,0.3835020959377289,14.0,0.0,2.3800134658813477,-0.9795427322387695,-0.3835020959377289,21.0,0.0,2.2280216217041016,-0.7073879241943359,-1.5340083837509155,14.0,0.0,2.3621320724487305,-0.6455183029174805,-1.5340083837509155,19.25,0.0,1.8231868743896484,-1.3786554336547852,0.0,23.25,0.0,1.9458532333374023,-1.3757944107055664,0.0,24.25,0.0,2.30562686920166,-1.1529922485351562,0.0,22.75,0.0,3.098130226135254,-1.3718605041503906,0.0,17.0,0.0,2.9271841049194336,-0.8858442306518555,0.0,16.0,0.0,2.76339054107666,-0.5031824111938477,0.0,25.25,0.0,2.8510093688964844,-0.4191398620605469,0.0,25.0
0.0,-1.401298464324817e-45,2.3985443115234375,-1.1935398578643799,5.605193857299268e-45,-1.0194652080535889,-0.2742200791835785,0.0,-0.620710551738739,0.17017094790935516,0.0,2.4347305297851562,-1.2395381927490234,-1.1505062878131866,19.25,0.0,2.557039260864258,-1.2981891632080078,-1.1505062878131866,15.5,0.0,2.1321773529052734,-0.8829832077026367,-0.5752531439065933,19.0,0.0,2.2133588790893555,-0.8726119995117188,-0.19175104796886444,21.25,0.0,2.337813377380371,-0.9756088256835938,-0.19175104796886444,18.75,0.0,1.8857717514038086,-1.2981891632080078,0.0,23.5,0.0,2.00808048248291,-1.2978315353393555,0.0,25.25,0.0,2.29489803314209,-1.1529922485351562,0.0,24.0,0.0,3.07309627532959,-1.430511474609375,0.0,16.5,0.0,2.9096603393554688,-0.9251832962036133,0.0,16.75,0.0,2.713322639465332,-0.6355047225952148,0.0,25.5,0.0,2.834200859069824,-0.5321502685546875,0.0,23.75,,,,,,,,,,,,,,,
0.0,-1.401298464324817e-45,2.277987003326416,-1.2275276184082031,5.605193857299268e-45,-1.1112827062606812,-0.2687959671020508,0.0,-0.6529523134231567,0.16297593712806702,0.0,2.199411392211914,-1.3239383697509766,-0.7670041918754578,20.0,0.0,2.283811569213867,-1.4383792877197266,-1.9175104796886444,19.0,0.0,2.44903564453125,-1.4423131942749023,-1.5340083837509155,12.5,0.0,2.1311044692993164,-1.1047124862670898,-0.19175104796886444,18.75,0.0,2.0570755004882812,-0.9244680404663086,-0.19175104796886444,17.25,0.0,1.8296241760253906,-1.3500452041625977,0.0,24.0,0.0,1.979827880859375,-1.3418197631835938,0.0,25.0,0.0,2.640366554260254,-0.8443593978881836,0.0,24.75,0.0,2.879619598388672,-1.0178089141845703,0.0,16.75,0.0,2.8138160705566406,-0.6566047668457031,0.0,22.25,,,,,,,,,,,,,,,,,,,,,,,,,
0.0,0.0,2.1823348999023438,-1.2549614906311035,7.006492321624085e-45,-1.116620659828186,-0.2770808935165405,0.0,-0.5628284811973572,0.11750569939613342,0.0,2.1532773971557617,-1.267075538635254,-0.3835020959377289,19.75,0.0,2.312779426574707,-1.3217926025390625,-0.3835020959377289,15.75,0.0,2.0810365676879883,-1.0378360748291016,-0.19175104796886444,17.25,0.0,2.12252140045166,-1.1283159255981445,-0.5752531439065933,21.25,0.0,1.875758171081543,-1.2770891189575195,0.0,25.5,0.0,2.857804298400879,-1.109004020690918,0.0,16.25,0.0,2.5981664657592773,-0.9359121322631836,0.0,24.0,0.0,2.75266170501709,-0.8840560913085938,0.0,19.75,,,,,,,,,,,,,,,,,,,,,,,,,,,,,,,,,,,
0.0,3.164518247444903e-08,3.0468764305114746,-0.5525991320610046,1.9595211142586777e-07,-0.42062342166900635,-0.3335531949996948,1.8410977986604848e-07,-0.2854607105255127,-0.15845848619937897,0.0,3.1975507736206055,-1.5131235122680664,-0.3835020959377289,12.0,0.0,3.1206607818603516,-0.9999275207519531,-0.3835020959377289,23.25,0.0,3.170013427734375,-1.1286735534667969,-0.3835020959377289,16.25,0.0,3.018021583557129,-0.6719827651977539,-0.3835020959377289,20.5,0.0,2.87783145904541,-0.09870529174804688,-0.3835020959377289,24.25,0.0,2.7648210525512695,0.03325939178466797,-0.5752531439065933,15.75,0.0,2.829909324645996,-0.051856040954589844,-0.3835020959377289,24.0,,,,,,,,,,,,,,,,,,,,,,,,,,,,,,,,,,,,,,,,
0.0,3.8932661539092805e-08,2.9815540313720703,-0.6385282874107361,1.9746535429021606e-07,-0.5113257765769958,-0.4305422604084015,1.7369103488817927e-07,-0.36987006664276123,-0.21948707103729248,0.0,2.9969215393066406,-1.3729333877563477,-0.9587552398443222,26.5,0.0,3.040909767150879,-1.406550407409668,-0.9587552398443222,20.5,0.0,2.9522180557250977,-1.2377500534057617,-0.9587552398443222,23.0,0.0,2.8738975524902344,-0.3883838653564453,-0.3835020959377289,20.25,0.0,2.7698278427124023,-0.11587142944335938,-0.19175104796886444,22.0,0.0,2.7211904525756836,-0.07617473602294922,-0.19175104796886444,17.0,,,,,,,,,,,,,,,,,,,,,,,,,,,,,,,,,,,,,,,,,,,,,
0.0,4.3725997045385157e-08,2.9040684700012207,-0.7959321141242981,1.938370530751854e-07,-0.6715283989906311,-0.6203757524490356,1.6036689487464173e-07,-0.5694204568862915,-0.33579790592193604,0.0,3.0552148818969727,-1.5131235122680664,-1.5340083837509155,16.0,0.0,3.1757354736328125,-1.656174659729004,-1.5340083837509155,12.25,0.0,2.9228925704956055,-1.1372566223144531,-1.5340083837509155,19.25,0.0,3.024458885192871,-1.2449026107788086,-1.5340083837509155,19.5,0.0,2.8388500213623047,-0.9416341781616211,-0.5752531439065933,17.5,0.0,2.7666091918945312,-0.5639791488647461,-0.3835020959377289,13.5,0.0,3.039121627807617,-1.291036605834961,0.0,26.25,,,,,,,,,,,,,,,,,,,,,,,,,,,,,,,,,,,,,,,,
0.0,4.595115044025988e-08,2.832977533340454,-0.916897177696228,1.864935370576859e-07,-0.7614080905914307,-0.7396228313446045,1.4570653661394317e-07,-0.6310726404190063,-0.3964659869670868,0.0,3.0115842819213867,-1.6658306121826172,0.19175104796886444,17.5,0.0,3.1017065048217773,-1.7606019973754883,-2.3010125756263733,13.75,0.0,2.8628110885620117,-1.0854005813598633,-0.9587552398443222,21.75,0.0,3.05020809173584,-1.166224479675293,0.19175104796886444,18.5,0.0,2.742290496826172,-1.0074377059936523,-0.9587552398443222,24.0,0.0,2.713322639465332,-0.7320642471313477,-0.9587552398443222,22.5,0.0,2.664327621459961,-0.47206878662109375,-0.7670041918754578,17.75,,,,,,,,,,,,,,,,,,,,,,,,,,,,,,,,,,,,,,,,
0.0,4.6408477061277154e-08,2.6913230419158936,-1.036346197128296,1.7558950560214726e-07,-0.9979222416877747,-0.8177828192710876,1.2934785331708554e-07,-0.8691285252571106,-0.39350980520248413,0.0,1.7341375350952148,-1.5310049057006836,-0.19175104796886444,14.25,0.0,2.0914077758789062,-1.2924671173095703,-0.19175104796886444,18.75,0.0,2.913236618041992,-1.4401674270629883,-2.4927636235952377,14.25,0.0,3.014802932739258,-1.616835594177246,-2.4927636235952377,13.75,0.0,2.4143457412719727,-1.0453462600708008,-1.1505062878131866,20.5,0.0,2.579927444458008,-1.028895378112793,-1.1505062878131866,23.25,0.0,2.651095390319824,-1.130819320678711,-1.1505062878131866,22.25,0.0,2.7855634689331055,-1.1858940124511719,-1.1505062878131866,16.25,0.0,1.7673969268798828,-1.5059709548950195,0.0,16.0,0.0,1.965165138244629,-1.4290809631347656,0.0,20.0,0.0,2.6232004165649414,-0.45168399810791016,0.0,20.25,,,,,,,,,,,,,,,,,,,,
0.0,4.6562902866753575e-08,2.528184652328491,-1.1805251836776733,1.6457902063393703e-07,-1.1863616704940796,-0.9657302498817444,1.1417441925232197e-07,-0.9644403457641602,-0.48740726709365845,0.0,1.80816650390625,-1.2731552124023438,-0.19175104796886444,25.5,0.0,2.035975456237793,-1.1172294616699219,-0.19175104796886444,23.25,0.0,2.6460886001586914,-1.495957374572754,-1.9175104796886444,14.25,0.0,2.819180488586426,-1.6161203384399414,0.7670041918754578,12.0,0.0,2.304553985595703,-1.0761022567749023,-0.9587552398443222,20.75,0.0,2.5016069412231445,-1.145482063293457,-0.19175104796886444,20.0,0.0,2.6232004165649414,-1.1998414993286133,-1.9175104796886444,16.75,0.0,1.9294023513793945,-1.3611316680908203,0.0,22.0,0.0,2.445816993713379,-0.9012222290039062,0.0,21.25,,,,,,,,,,,,,,,,,,,,,,,,,,,,,,
0.0,5.198039687570599e-08,2.3812015056610107,-1.2662944793701172,1.6047376050210005e-07,-1.3154282569885254,-0.9968583583831787,1.0427376651023224e-07,-0.9887425303459167,-0.47636961936950684,0.0,2.2058486938476562,-1.2656450271606445,-0.3835020959377289,21.5,0.0,2.0366907119750977,-1.0045766830444336,-1.5340083837509155,22.5,0.0,2.080678939819336,-1.122593879699707,0.19175104796886444,23.0,0.0,2.371072769165039,-1.2552738189697266,-0.3835020959377289,20.5,0.0,1.9862651824951172,-1.2863874435424805,0.0,23.5,0.0,2.2802352905273438,-1.1665821075439453,0.0,22.75,,,,,,,,,,,,,,,,,,,,,,,,,,,,,,,,,,,,,,,,,,,,,
0.0,5.1971031922448674e-08,2.224853038787842,-1.3338977098464966,1.4879594800731866e-07,-1.425112247467041,-1.0036864280700684,9.022468816510809e-08,-0.9761520028114319,-0.45839911699295044,0.0,1.9161701202392578,-1.0703802108764648,-0.19175104796886444,24.75,0.0,1.9644498825073242,-1.1987686157226562,0.3835020959377289,22.25,0.0,2.1260976791381836,-1.2792348861694336,-0.9587552398443222,18.0,0.0,1.8897056579589844,-0.9845495223999023,-0.19175104796886444,15.0,0.0,2.410411834716797,-1.1837482452392578,-0.9587552398443222,12.5,0.0,1.868605613708496,-1.227736473083496,0.0,25.0,0.0,1.9762516021728516,-1.2874603271484375,0.0,24.0,0.0,2.35140323638916,-1.0464191436767578,0.0,22.75,,,,,,,,,,,,,,,,,,,,,,,,,,,,,,,,,,,
0.0,4.8037541944268014e-08,2.105722188949585,-1.3673959970474243,1.3199908721617248e-07,-1.4607065916061401,-0.9340013265609741,7.371020416258034e-08,-0.9087280631065369,-0.365017831325531,0.0,1.8525123596191406,-1.2062788009643555,-0.7670041918754578,23.0,0.0,1.822829246520996,-1.1487007141113281,-0.19175104796886444,12.25,0.0,1.9648075103759766,-1.2420415878295898,-0.7670041918754578,20.5,0.0,2.269864082336426,-1.1644363403320312,-0.5752531439065933,18.25,0.0,2.4261474609375,-1.2116432189941406,-0.5752531439065933,17.5,0.0,2.5295019149780273,-1.2431144714355469,-0.7670041918754578,13.5,0.0,1.8796920776367188,-1.2177228927612305,0.0,25.0,0.0,2.0052194595336914,-1.2499094009399414,0.0,24.25,0.0,2.30562686920166,-1.0896921157836914,0.0,23.0,,,,,,,,,,,,,,,,,,,,,,,,,,,,,,
0.0,4.964913813410021e-08,2.002628803253174,-1.4227930307388306,1.2338719557192235e-07,-1.4517879486083984,-0.9142829179763794,6.350413173095149e-08,-0.7984368801116943,-0.3307623267173767,0.0,1.8067359924316406,-1.3428926467895508,-0.19175104796886444,17.25,0.0,2.00808048248291,-1.3200044631958008,0.19175104796886444,18.5,0.0,2.2923946380615234,-1.152634620666504,-0.7670041918754578,19.5,0.0,2.4039745330810547,-1.1483430862426758,-0.7670041918754578,16.5,0.0,1.9916296005249023,-1.2652873992919922,0.0,24.25,0.0,2.2630691528320312,-1.1748075485229492,0.0,22.75,,,,,,,,,,,,,,,,,,,,,,,,,,,,,,,,,,,,,,,,,,,,,
0.0,5.262530677896393e-08,1.9496976137161255,-1.437166690826416,1.1692517176697947e-07,-1.340812087059021,-0.8258413672447205,5.536942637718312e-08,-0.5997191667556763,-0.2439538687467575,0.0,1.8793344497680664,-1.0986328125,0.19175104796886444,14.5,0.0,2.424001693725586,-0.9402036666870117,-0.3835020959377289,16.5,0.0,2.4422407150268555,-1.0793209075927734,-0.3835020959377289,14.5,0.0,2.0112991333007812,-1.2445449829101562,0.0,24.0,0.0,2.2673606872558594,-1.1698007583618164,0.0,22.75,,,,,,,,,,,,,,,,,,,,,,,,,,,,,,,,,,,,,,,,,,,,,,,,,,
0.0,5.1528147082535725e-08,1.9354790449142456,-1.4772998094558716,1.0533344152463542e-07,-1.1529450416564941,-0.8124002814292908,4.4608484017771843e-08,-0.33206281065940857,-0.2517451047897339,0.0,1.7108917236328125,-1.4612674713134766,0.19175104796886444,12.25,0.0,2.2516250610351562,-1.042485237121582,0.19175104796886444,15.0,0.0,2.31170654296875,-1.1930465698242188,0.19175104796886444,19.5,0.0,2.3664236068725586,-1.2309551239013672,0.3835020959377289,18.25,0.0,2.010941505432129,-1.2384653091430664,0.0,23.75,0.0,2.260565757751465,-1.2062788009643555,0.0,22.75,,,,,,,,,,,,,,,,,,,,,,,,,,,,,,,,,,,,,,,,,,,,,
0.0,2.401482346314765e-09,3.1574480533599854,-0.7559160590171814,3.794724090511181e-09,-0.3292463421821594,-0.43613606691360474,7.701954074512685e-10,-0.31931164860725403,-0.3577587604522705,0.0,3.1110048294067383,-1.7788410186767578,-0.5752531439065933,12.5,0.0,3.7490129470825195,-1.4737844467163086,-0.3835020959377289,12.75,0.0,3.257274627685547,-1.0281801223754883,-0.3835020959377289,15.75,0.0,3.157496452331543,-0.6197690963745117,-0.3835020959377289,17.75,0.0,3.0301809310913086,-0.1684427261352539,-0.19175104796886444,22.25,0.0,2.924323081970215,-0.03719329833984375,-0.19175104796886444,18.0,0.0,2.9686689376831055,-0.080108642578125,-0.19175104796886444,24.0,0.0,3.2547712326049805,-1.2509822845458984,0.0,26.0,0.0,3.3320188522338867,-1.2727975845336914,0.0,20.5,0.0,3.184676170349121,-0.9920597076416016,0.0,22.5,,,,,,,,,,,,,,,,,,,,,,,,,
0.0,2.1084578527563735e-09,3.122351884841919,-0.7554808855056763,3.037218698764832e-09,-0.36511513590812683,-0.3937120735645294,2.5487539856428043e-10,-0.32904091477394104,-0.29048725962638855,0.0,3.157496452331543,-1.6322135925292969,-0.3835020959377289,13.25,0.0,3.1785964965820312,-1.1858940124511719,-0.3835020959377289,20.25,0.0,3.127455711364746,-0.949859619140625,-0.5752531439065933,22.75,0.0,3.0537843704223633,-0.4559755325317383,-0.19175104796886444,23.0,0.0,2.967953681945801,-0.13840198516845703,-0.19175104796886444,23.25,0.0,2.897500991821289,-0.0007152557373046875,-0.19175104796886444,18.75,0.0,3.234744071960449,-1.2745857238769531,0.0,26.25,0.0,3.33559513092041,-1.2617111206054688,0.0,20.5,0.0,3.163933753967285,-1.0471343994140625,0.0,23.5,0.0,2.942204475402832,0.015735626220703125,0.0,16.75,,,,,,,,,,,,,,,,,,,,,,,,,
