tid,posx,posy,posz,velx,vely,velz,accx,accy,accz,pointx1,pointy1,pointz1,doppler1,snr1,pointx2,pointy2,pointz2,doppler2,snr2,pointx3,pointy3,pointz3,doppler3,snr3,pointx4,pointy4,pointz4,doppler4,snr4,pointx5,pointy5,pointz5,doppler5,snr5,pointx6,pointy6,pointz6,doppler6,snr6,pointx7,pointy7,pointz7,doppler7,snr7,pointx8,pointy8,pointz8,doppler8,snr8,pointx9,pointy9,pointz9,doppler9,snr9,pointx10,pointy10,pointz10,doppler10,snr10,pointx11,pointy11,pointz11,doppler11,snr11,pointx12,pointy12,pointz12,doppler12,snr12,pointx13,pointy13,pointz13,doppler13,snr13,pointx14,pointy14,pointz14,doppler14,snr14
0.0,-0.5225991606712341,3.1862332820892334,3.690362427732907e-05,-0.1943916529417038,-0.30405542254447937,-6.667721027042717e-05,-0.03632892668247223,0.037796832621097565,-0.0001967855350812897,0.0,3.284454345703125,-1.3210773468017578,-0.19175104796886444,18.0,0.0,3.177165985107422,-1.1762380599975586,-0.5752531439065933,20.75,0.0,3.276944160461426,-1.1461973190307617,-0.19175104796886444,24.0,0.0,3.0755996704101562,-0.25534629821777344,-0.19175104796886444,18.25,0.0,2.854585647583008,0.1405477523803711,-0.3835020959377289,17.5,0.0,2.922534942626953,0.16987323760986328,-0.3835020959377289,19.25,0.0,3.3910274505615234,-1.065373420715332,0.0,20.25,0.0,3.571629524230957,-1.061081886291504,0.0,12.25,,,,,,,,,,,,,,,,,,,,,,,,,,,,,,
0.0,-0.5343883037567139,3.1542556285858154,2.1191000996623188e-05,-0.17963066697120667,-0.3249940276145935,-9.60723336902447e-05,-0.015137804672122002,-0.011863548308610916,-0.0002025565627263859,0.0,3.3566951751708984,-1.3672113418579102,-0.3835020959377289,15.75,0.0,3.4818649291992188,-1.3489723205566406,-0.3835020959377289,12.25,0.0,3.154635429382324,-1.043558120727539,-0.3835020959377289,16.25,0.0,3.2901763916015625,-1.2001991271972656,-0.3835020959377289,16.75,0.0,2.9200315475463867,0.07724761962890625,-0.3835020959377289,22.25,0.0,2.877473831176758,0.13625621795654297,-0.3835020959377289,18.25,0.0,2.991914749145508,0.0997781753540039,-0.3835020959377289,17.5,0.0,3.565192222595215,-1.1304616928100586,0.0,13.75,,,,,,,,,,,,,,,,,,,,,,,,,,,,,,
0.0,-0.46859991550445557,3.1118571758270264,8.20342575025279e-06,-0.034295737743377686,-0.3556329011917114,-0.00011913233174709603,0.11558206379413605,-0.06610514223575592,-0.0002042415289906785,0.0,3.288745880126953,-1.30462646484375,-0.5752531439065933,12.75,0.0,3.1489133834838867,-0.9952783584594727,-0.5752531439065933,26.25,0.0,3.189682960510254,-1.0467767715454102,-0.5752531439065933,20.25,0.0,2.808094024658203,0.04649162292480469,-0.3835020959377289,13.75,0.0,2.899646759033203,0.05435943603515625,-0.3835020959377289,27.75,0.0,2.905726432800293,0.11801719665527344,-0.3835020959377289,31.25,0.0,2.970099449157715,0.23567676544189453,-0.3835020959377289,25.5,0.0,3.396749496459961,-1.5535354614257812,0.0,12.75,0.0,3.2379627227783203,-0.5593299865722656,0.0,25.5,0.0,2.921462059020996,0.05793571472167969,0.0,22.0,0.0,3.075242042541504,-0.06866455078125,0.0,26.5,0.0,2.9729604721069336,0.10693073272705078,0.0,27.5,,,,,,,,,,
0.0,-0.46724727749824524,3.0546011924743652,-2.6123352654394694e-06,-0.007872463203966618,-0.44039255380630493,-0.0001362895272905007,0.1389997899532318,-0.1978236734867096,-0.0002021425898419693,0.0,3.219723701477051,-0.9684562683105469,-0.7670041918754578,21.75,0.0,3.2973289489746094,-1.2052059173583984,-0.7670041918754578,14.0,0.0,3.156423568725586,-0.8658170700073242,-0.7670041918754578,27.25,0.0,3.084897994995117,-0.5357265472412109,-0.5752531439065933,26.75,0.0,2.9364824295043945,-0.12624263763427734,-0.5752531439065933,26.0,0.0,2.745509147644043,0.07832050323486328,-0.5752531439065933,17.75,0.0,2.8274059295654297,0.027894973754882812,-0.5752531439065933,24.75,0.0,2.8885602951049805,0.03898143768310547,0.0,24.0,0.0,2.957582473754883,0.08189678192138672,0.0,28.0,,,,,,,,,,,,,,,,,,,,,,,,,
0.0,-0.46332859992980957,2.97990345954895,-1.2971424439456314e-05,0.018140045925974846,-0.5333239436149597,-0.00015067533240653574,0.15761326253414154,-0.3063856065273285,-0.00019846076611429453,0.0,2.9125213623046875,-0.9595155715942383,-0.3835020959377289,23.75,0.0,3.016233444213867,-1.0210275650024414,-0.3835020959377289,18.75,0.0,2.8563737869262695,-0.32007694244384766,-0.9587552398443222,25.25,0.0,2.773404121398926,-0.10228157043457031,-0.9587552398443222,26.75,0.0,2.7126073837280273,-0.03218650817871094,-0.9587552398443222,22.5,0.0,2.8699636459350586,0.0050067901611328125,0.0,24.75,0.0,2.9457807540893555,0.048995018005371094,0.0,28.25,,,,,,,,,,,,,,,,,,,,,,,,,,,,,,,,,,,
0.0,-0.5540217757225037,2.8885560035705566,-2.152713932446204e-05,-0.11869870871305466,-0.6808161735534668,-0.00016001859330572188,0.03938385844230652,-0.4864179491996765,-0.00019169414008501917,0.0,3.001570701599121,-1.6243457794189453,-1.1505062878131866,20.5,0.0,3.1102895736694336,-1.657247543334961,-1.1505062878131866,15.5,0.0,2.840280532836914,-1.0685920715332031,-0.19175104796886444,24.0,0.0,2.9883384704589844,-1.2356042861938477,-1.342257335782051,21.75,0.0,2.933621406555176,-1.0274648666381836,-1.342257335782051,26.5,0.0,2.7948617935180664,-0.35941600799560547,-1.1505062878131866,19.5,0.0,2.660393714904785,-0.2009868621826172,-1.1505062878131866,14.75,0.0,3.147125244140625,-1.101851463317871,0.0,22.25,0.0,2.8606653213500977,0.00035762786865234375,0.0,24.75,0.0,2.938985824584961,-0.009298324584960938,0.0,28.25,0.0,3.02731990814209,-0.09441375732421875,0.0,25.5,,,,,,,,,,,,,,,
0.0,-0.7114906907081604,2.732625722885132,-2.219537418568507e-05,-0.32733413577079773,-1.0167033672332764,-0.0001558808289701119,-0.09493012726306915,-0.9430274963378906,-0.0001763929467415437,0.0,2.899646759033203,-1.626133918762207,-1.5340083837509155,18.5,0.0,3.0870437622070312,-1.7352104187011719,-0.19175104796886444,13.25,0.0,2.8470754623413086,-1.3350248336791992,-1.5340083837509155,25.25,0.0,2.771615982055664,-1.1601448059082031,-1.5340083837509155,34.0,0.0,2.8041601181030273,-1.1905431747436523,-1.5340083837509155,30.75,0.0,2.7344226837158203,-0.9362697601318359,-1.5340083837509155,27.75,0.0,2.314925193786621,-0.40662288665771484,-1.5340083837509155,15.75,0.0,2.4340152740478516,-0.34940242767333984,-1.5340083837509155,21.0,0.0,2.593874931335449,-0.39267539978027344,-1.342257335782051,22.75,0.0,1.7237663269042969,-1.5149116516113281,0.0,14.0,,,,,,,,,,,,,,,,,,,,
0.0,-0.8907661437988281,2.596597909927368,-2.6340836484450847e-05,-0.5835874676704407,-1.1901955604553223,-0.0001568911102367565,-0.2983083128929138,-1.0482064485549927,-0.00016572688764426857,0.0,2.7104616165161133,-1.5131235122680664,-0.3835020959377289,19.75,0.0,2.791285514831543,-1.6633272171020508,-0.7670041918754578,19.25,0.0,2.8939247131347656,-1.7327070236206055,0.19175104796886444,16.75,0.0,2.671480178833008,-1.3386011123657227,-2.109261527657509,20.5,0.0,2.1393299102783203,-0.8608102798461914,-1.342257335782051,19.25,0.0,2.5616884231567383,-1.0846853256225586,-2.109261527657509,18.25,0.0,2.2791624069213867,-0.7417201995849609,-1.342257335782051,22.25,0.0,2.395749092102051,-0.7538795471191406,-1.342257335782051,20.75,0.0,1.8045902252197266,-1.395106315612793,0.0,21.0,,,,,,,,,,,,,,,,,,,,,,,,,
0.0,-1.0835440158843994,2.4693715572357178,-3.081850445596501e-05,-0.8846803903579712,-1.263970136642456,-0.0001578371156938374,-0.5698692798614502,-0.9601090550422668,-0.00015590502880513668,0.0,2.1425485610961914,-1.1762380599975586,0.5752531439065933,22.75,0.0,2.324223518371582,-1.340031623840332,-2.109261527657509,13.25,0.0,2.1060705184936523,-1.0088682174682617,0.5752531439065933,27.25,0.0,2.650737762451172,-1.382589340209961,-0.19175104796886444,13.5,0.0,2.7844905853271484,-1.4287233352661133,-0.19175104796886444,17.25,0.0,2.8824806213378906,-1.477360725402832,-0.19175104796886444,16.25,0.0,2.9886960983276367,-1.593947410583496,0.3835020959377289,13.25,0.0,2.0563602447509766,-0.9083747863769531,-0.9587552398443222,26.75,0.0,1.9909143447875977,-1.0542869567871094,0.0,23.5,,,,,,,,,,,,,,,,,,,,,,,,,
0.0,-1.21880304813385,2.3158180713653564,-3.625736280810088e-05,-1.0201036930084229,-1.403777837753296,-0.00015801812696736306,-0.6370317935943604,-1.009627103805542,-0.00014574728265870363,0.0,1.828908920288086,-1.1991262435913086,-0.19175104796886444,20.0,0.0,1.9276142120361328,-1.3747215270996094,-0.19175104796886444,19.5,0.0,2.3746490478515625,-1.2863874435424805,-1.342257335782051,14.0,0.0,2.532362937927246,-1.4269351959228516,-1.5340083837509155,12.25,0.0,2.6972293853759766,-1.489877700805664,-1.5340083837509155,13.75,0.0,2.262711524963379,-1.1830329895019531,-0.7670041918754578,18.0,0.0,2.9658079147338867,-1.651167869567871,0.0,20.25,0.0,3.0562877655029297,-1.752018928527832,0.0,14.0,0.0,1.9712448120117188,-1.0406970977783203,0.0,23.5,0.0,2.260923385620117,-0.7839202880859375,0.0,23.5,,,,,,,,,,,,,,,,,,,,
0.0,-1.3182724714279175,2.1682543754577637,-4.5790035073878244e-05,-1.0834590196609497,-1.497473120689392,-0.00016293724183924496,-0.6458437442779541,-0.9911680817604065,-0.0001393871643813327,0.0,1.9991397857666016,-1.1554956436157227,-0.7670041918754578,18.75,0.0,2.057790756225586,-1.1916160583496094,-0.19175104796886444,23.0,0.0,2.100348472595215,-1.2284517288208008,-0.19175104796886444,18.0,0.0,2.940058708190918,-1.6994476318359375,0.0,19.5,0.0,3.0548572540283203,-1.7391443252563477,0.0,13.5,,,,,,,,,,,,,,,,,,,,,,,,,,,,,,,,,,,,,,,,,,,,,
0.0,-1.4353761672973633,1.9952142238616943,-5.070245242677629e-05,-1.170341968536377,-1.6188522577285767,-0.00016006248188205063,-0.6756958365440369,-1.003956913948059,-0.00012828076432924718,0.0,1.7902851104736328,-1.4641284942626953,-0.5752531439065933,16.75,0.0,1.7298460006713867,-1.245260238647461,-0.19175104796886444,13.0,0.0,1.7731189727783203,-1.2699365615844727,-0.19175104796886444,20.0,0.0,2.04312801361084,-1.4101266860961914,-0.5752531439065933,15.0,0.0,3.0477046966552734,-1.740574836730957,0.0,13.75,,,,,,,,,,,,,,,,,,,,,,,,,,,,,,,,,,,,,,,,,,,,,
0.0,-1.5574692487716675,1.8264553546905518,-6.323722482193261e-05,-1.2496535778045654,-1.7162394523620605,-0.00016725319437682629,-0.6941244602203369,-0.9940154552459717,-0.00012460598372854292,0.0,1.6733407974243164,-1.3557672500610352,0.19175104796886444,17.5,,,,,,,,,,,,,,,,,,,,,,,,,,,,,,,,,,,,,,,,,,,,,,,,,,,,,,,,,,,,,,,,,
0.0,-0.35435906052589417,3.179912567138672,3.627721162047237e-05,-0.3073846697807312,-0.2057192325592041,9.405460878042504e-05,-0.3193386197090149,-0.16945956647396088,2.2150859877001494e-05,0.0,2.9157400131225586,-1.5914440155029297,-0.19175104796886444,14.5,0.0,3.566622734069824,-1.4591217041015625,-0.19175104796886444,12.0,0.0,3.4046173095703125,-0.6952285766601562,-0.3835020959377289,20.5,0.0,3.0645132064819336,0.030755996704101562,-0.3835020959377289,23.75,0.0,3.049135208129883,0.1062154769897461,-0.3835020959377289,26.5,0.0,3.0884742736816406,0.6387233734130859,-0.3835020959377289,18.5,0.0,3.3320188522338867,-0.7860660552978516,0.0,26.0,0.0,3.4475326538085938,-0.8211135864257812,0.0,19.25,0.0,2.997279167175293,0.041484832763671875,0.0,12.25,0.0,3.122091293334961,0.05543231964111328,0.0,31.5,0.0,3.196835517883301,0.012159347534179688,0.0,28.0,,,,,,,,,,,,,,,
0.0,-0.4437378942966461,3.1562905311584473,3.524674684740603e-05,-0.42817386984825134,-0.2552907466888428,8.401799277635291e-05,-0.38610368967056274,-0.23069477081298828,1.5430385246872902e-05,0.0,3.209710121154785,-1.0703802108764648,-0.3835020959377289,20.0,0.0,3.2701492309570312,-1.0542869567871094,-0.19175104796886444,21.75,0.0,3.3549070358276367,-1.062154769897461,-0.3835020959377289,14.5,0.0,2.9894113540649414,0.06902217864990234,-0.3835020959377289,17.5,0.0,3.077387809753418,0.0883340835571289,-0.3835020959377289,17.0,0.0,3.313779830932617,-0.9194612503051758,0.0,25.75,0.0,3.4096240997314453,-0.98419189453125,0.0,18.75,0.0,2.986907958984375,0.0514984130859375,0.0,13.75,0.0,3.108859062194824,0.07367134094238281,0.0,31.0,0.0,3.1921863555908203,0.015377998352050781,0.0,26.75,,,,,,,,,,,,,,,,,,,,
0.0,-0.5258880257606506,3.119999408721924,3.3552143577253446e-05,-0.5148731470108032,-0.34498700499534607,7.353369437623769e-05,-0.4125564992427826,-0.34982746839523315,8.790079846221488e-06,0.0,3.330230712890625,-2.2662878036499023,-0.5752531439065933,14.0,0.0,3.142118453979492,-1.2102127075195312,-0.3835020959377289,20.75,0.0,3.2383203506469727,-1.1208057403564453,-0.5752531439065933,20.75,0.0,3.3849477767944336,-1.1254549026489258,-0.5752531439065933,15.0,0.0,2.99227237701416,0.057578086853027344,-0.5752531439065933,16.75,0.0,3.097057342529297,0.08046627044677734,-0.5752531439065933,16.5,0.0,3.3044815063476562,-1.0149478912353516,0.0,25.75,0.0,3.3638477325439453,-1.0685920715332031,0.0,19.5,0.0,2.980828285217285,0.09119510650634766,0.0,15.0,,,,,,,,,,,,,,,,,,,,,,,,,
0.0,-0.5338805317878723,3.086164712905884,3.0223221983760595e-05,-0.4748149812221527,-0.3945317268371582,6.216746260179207e-05,-0.34023672342300415,-0.38567352294921875,2.1957062017463613e-06,0.0,3.2393932342529297,-1.4187097549438477,-0.5752531439065933,17.0,0.0,3.1671524047851562,-1.0467767715454102,-0.3835020959377289,23.5,0.0,3.2186508178710938,-1.1858940124511719,-0.3835020959377289,23.0,0.0,2.916097640991211,0.06330013275146484,-0.3835020959377289,22.5,0.0,2.9321908950805664,0.125885009765625,-0.3835020959377289,27.25,0.0,2.991199493408203,0.1251697540283203,-0.3835020959377289,23.25,0.0,3.3534765243530273,-1.0657310485839844,0.0,18.0,,,,,,,,,,,,,,,,,,,,,,,,,,,,,,,,,,,
0.0,-0.56781005859375,3.0333003997802734,2.846396091626957e-05,-0.47404932975769043,-0.48011550307273865,5.3222174756228924e-05,-0.30201297998428345,-0.46521008014678955,-2.8218773877597414e-06,0.0,3.1145811080932617,-0.9849071502685547,-0.5752531439065933,23.0,0.0,3.177165985107422,-1.1032819747924805,-0.5752531439065933,19.5,0.0,3.0298233032226562,-0.5582571029663086,-0.5752531439065933,23.25,0.0,2.948284149169922,-0.24819374084472656,-0.5752531439065933,24.25,0.0,2.8924942016601562,-0.013232231140136719,-0.5752531439065933,19.25,0.0,3.2079219818115234,-1.497030258178711,0.0,15.0,0.0,3.222942352294922,-1.1004209518432617,0.0,24.25,,,,,,,,,,,,,,,,,,,,,,,,,,,,,,,,,,,
0.0,-0.5497214198112488,2.963012456893921,2.5153141905320808e-05,-0.37601998448371887,-0.6032662987709045,4.305399488657713e-05,-0.1778789609670639,-0.5973092317581177,-8.294899089378305e-06,0.0,3.037691116333008,-2.0012855529785156,-1.5340083837509155,12.25,0.0,3.050565719604492,-0.9248256683349609,-0.9587552398443222,26.5,0.0,3.163576126098633,-0.9655952453613281,-0.7670041918754578,15.0,0.0,2.9833316802978516,-0.8103847503662109,-0.7670041918754578,28.25,0.0,2.901434898376465,-0.19991397857666016,-0.7670041918754578,29.0,0.0,2.7780532836914062,-0.0286102294921875,-0.7670041918754578,19.0,0.0,2.8409957885742188,-0.03826618194580078,-0.7670041918754578,28.0,0.0,3.176450729370117,-1.1093616485595703,0.0,23.5,,,,,,,,,,,,,,,,,,,,,,,,,,,,,,
0.0,-0.6347463130950928,2.8666861057281494,2.1929336071480066e-05,-0.44759368896484375,-0.786169171333313,3.350639599375427e-05,-0.19951818883419037,-0.7947742938995361,-1.3303238119988237e-05,0.0,2.9436349868774414,-1.3375282287597656,-0.3835020959377289,19.75,0.0,3.023386001586914,-1.5066862106323242,-1.1505062878131866,15.5,0.0,2.9271841049194336,-1.0095834732055664,-1.1505062878131866,22.75,0.0,2.880692481994629,-0.7145404815673828,-1.1505062878131866,22.0,0.0,2.658247947692871,-0.10156631469726562,-1.1505062878131866,17.75,0.0,2.7669668197631836,-0.2574920654296875,-1.1505062878131866,20.0,0.0,3.1278133392333984,-0.9899139404296875,0.0,27.5,,,,,,,,,,,,,,,,,,,,,,,,,,,,,,,,,,,
0.0,-0.7091847062110901,2.7614850997924805,1.7294720237259753e-05,-0.4802902638912201,-0.9845256209373474,2.300461710547097e-05,-0.17701953649520874,-1.0021071434020996,-1.8604026990942657e-05,0.0,2.930760383605957,-1.3500452041625977,-1.342257335782051,19.0,0.0,3.073453903198242,-1.4698505401611328,-0.5752531439065933,18.25,0.0,3.147125244140625,-1.6297101974487305,-0.3835020959377289,13.75,0.0,2.871394157409668,-1.0821819305419922,-1.342257335782051,23.5,0.0,2.7991533279418945,-0.9605884552001953,-0.19175104796886444,25.25,0.0,2.5273561477661133,-0.3032684326171875,-1.72575943171978,20.75,0.0,2.5849342346191406,-0.30112266540527344,-1.72575943171978,26.5,0.0,2.694368362426758,-0.3712177276611328,-1.5340083837509155,24.5,0.0,1.7273426055908203,-1.4255046844482422,0.0,20.75,0.0,2.0467042922973633,-1.1719465255737305,0.0,18.25,0.0,3.107428550720215,-1.639723777770996,0.0,12.75,,,,,,,,,,,,,,,
0.0,-0.8223081231117249,2.659259796142578,1.3575152479461394e-05,-0.6202753782272339,-1.0680007934570312,1.4218627256923355e-05,-0.29390981793403625,-0.960156261920929,-2.2420987079385668e-05,0.0,2.8853416442871094,-1.3672113418579102,-0.19175104796886444,16.25,0.0,3.0012130737304688,-1.581430435180664,-0.3835020959377289,13.5,0.0,2.772688865661621,-1.0939836502075195,-0.19175104796886444,23.5,0.0,2.798795700073242,-1.203775405883789,-0.19175104796886444,21.0,0.0,2.664327621459961,-0.8783340454101562,-0.19175104796886444,19.5,0.0,2.4486780166625977,-0.6315708160400391,-1.5340083837509155,20.5,0.0,2.2766590118408203,-0.47206878662109375,-1.5340083837509155,17.75,0.0,2.3456811904907227,-0.5239248275756836,-1.5340083837509155,21.75,0.0,3.0902624130249023,-1.066446304321289,0.0,23.0,,,,,,,,,,,,,,,,,,,,,,,,,
0.0,-1.0631906986236572,2.534630298614502,1.0318717613699846e-05,-1.0250320434570312,-1.114939570426941,6.301388111751294e-06,-0.6805416345596313,-0.8054856061935425,-2.547670555941295e-05,0.0,2.260923385620117,-1.3464689254760742,-2.109261527657509,17.0,0.0,2.076387405395508,-1.0417699813842773,2.4927636235952377,29.25,0.0,2.1053552627563477,-1.0607242584228516,2.4927636235952377,32.25,0.0,2.140045166015625,-1.1179447174072266,2.4927636235952377,27.0,0.0,2.631068229675293,-1.3593435287475586,-0.19175104796886444,14.25,0.0,2.7877092361450195,-1.4319419860839844,-0.19175104796886444,16.75,0.0,2.9436349868774414,-1.4348030090332031,-0.19175104796886444,17.5,0.0,3.0412673950195312,-1.5310049057006836,-0.19175104796886444,15.75,0.0,3.143191337585449,-1.5377998352050781,0.0,13.25,0.0,3.0916929244995117,-1.316070556640625,0.0,21.0,0.0,3.0881166458129883,-1.0936260223388672,0.0,23.5,,,,,,,,,,,,,,,
0.0,-1.180441975593567,2.3992738723754883,8.071885531535372e-06,-1.0799071788787842,-1.2648847103118896,4.558821729006013e-07,-0.6383991837501526,-0.9176501035690308,-2.748468250501901e-05,0.0,2.1604299545288086,-1.1894702911376953,-1.5340083837509155,24.25,0.0,2.3235082626342773,-1.3053417205810547,-1.5340083837509155,13.5,0.0,2.582430839538574,-1.430511474609375,-1.5340083837509155,16.0,0.0,2.710103988647461,-1.5120506286621094,-1.342257335782051,18.25,0.0,2.8188228607177734,-1.5807151794433594,-1.342257335782051,16.25,0.0,2.9718875885009766,-1.6769170761108398,-0.19175104796886444,13.0,0.0,2.0055770874023438,-0.9670257568359375,-1.1505062878131866,26.0,0.0,2.0939111709594727,-1.1086463928222656,-1.1505062878131866,27.75,0.0,1.994490623474121,-1.135110855102539,0.0,27.25,0.0,2.083897590637207,-1.1372566223144531,0.0,29.5,0.0,3.126382827758789,-1.5960931777954102,0.0,13.25,,,,,,,,,,,,,,,
0.0,-0.4123956263065338,3.0948057174682617,8.881857915810087e-09,0.015244314447045326,-0.41284608840942383,4.444606105380444e-08,-0.08733891695737839,-0.3991670608520508,1.6680811398828155e-08,0.0,3.1299591064453125,-0.905156135559082,-0.5752531439065933,24.5,0.0,3.2243728637695312,-0.9351968765258789,-0.7670041918754578,19.25,0.0,3.0208826065063477,-0.2557039260864258,-0.3835020959377289,25.25,0.0,2.900362014770508,-0.036835670471191406,-0.5752531439065933,24.75,0.0,2.9261112213134766,-0.07975101470947266,-0.5752531439065933,28.75,0.0,3.2029151916503906,-1.9909143447875977,0.0,15.0,,,,,,,,,,,,,,,,,,,,,,,,,,,,,,,,,,,,,,,,
0.0,-0.49628299474716187,3.016115427017212,9.654156585270357e-09,-0.1346701681613922,-0.54786616563797,4.126358632561278e-08,-0.1992139220237732,-0.5282689929008484,1.3665215625735527e-08,0.0,3.113865852355957,-1.816391944885254,-0.9587552398443222,14.25,0.0,3.240823745727539,-1.9211769104003906,-1.1505062878131866,13.25,0.0,3.166794776916504,-1.198410987854004,-0.9587552398443222,17.0,0.0,3.0591487884521484,-0.926971435546875,-0.9587552398443222,23.0,0.0,2.94649600982666,-0.8389949798583984,-0.5752531439065933,27.25,0.0,2.9082298278808594,-0.6401538848876953,-0.7670041918754578,26.75,0.0,2.8628110885620117,-0.26106834411621094,-0.7670041918754578,22.0,0.0,2.7573108673095703,-0.080108642578125,-0.7670041918754578,13.0,0.0,2.9447078704833984,-0.047206878662109375,0.0,26.25,0.0,3.0673742294311523,0.048279762268066406,0.0,24.5,,,,,,,,,,,,,,,,,,,,
0.0,-0.5698208808898926,2.921477794647217,9.568170256102349e-09,-0.24926260113716125,-0.699410080909729,3.7071863800974825e-08,-0.2700868844985962,-0.662257730960846,1.019651829636814e-08,0.0,3.005504608154297,-2.202272415161133,-1.9175104796886444,12.25,0.0,3.0884742736816406,-1.8264055252075195,-2.109261527657509,16.25,0.0,3.085970878601074,-1.4126300811767578,-1.1505062878131866,17.5,0.0,2.914309501647949,-1.0911226272583008,-0.5752531439065933,27.0,0.0,2.8198957443237305,-0.9359121322631836,-0.5752531439065933,24.5,0.0,3.0040740966796875,-1.113295555114746,-1.1505062878131866,21.0,0.0,2.5774240493774414,-0.10585784912109375,-0.9587552398443222,13.75,0.0,2.6793479919433594,-0.10228157043457031,-0.9587552398443222,22.75,0.0,2.7387142181396484,-0.1995563507080078,-0.9587552398443222,25.5,0.0,3.2923221588134766,-1.763463020324707,0.0,14.0,0.0,3.0759572982788086,-0.3046989440917969,0.0,24.5,,,,,,,,,,,,,,,
0.0,-0.7162870168685913,2.836681365966797,8.769260873009443e-09,-0.48742419481277466,-0.7846428155899048,3.222737987584878e-08,-0.4504236578941345,-0.6761122941970825,6.550195941201764e-09,0.0,2.9550790786743164,-1.387953758239746,-0.19175104796886444,22.0,0.0,3.0394792556762695,-1.4652013778686523,-0.19175104796886444,19.75,0.0,2.927541732788086,-1.096487045288086,-0.19175104796886444,21.75,0.0,3.209352493286133,-1.4412403106689453,-0.19175104796886444,13.25,0.0,2.196192741394043,-0.80108642578125,-0.7670041918754578,12.5,0.0,2.8181076049804688,-0.882267951965332,-0.19175104796886444,23.25,0.0,2.474069595336914,-0.4534721374511719,-1.5340083837509155,18.75,0.0,2.705097198486328,-0.4355907440185547,-1.1505062878131866,24.0,0.0,2.5881528854370117,-0.41556358337402344,-1.1505062878131866,23.75,0.0,1.719832420349121,-1.3779401779174805,0.0,19.5,0.0,2.0116567611694336,-1.1883974075317383,0.0,16.0,0.0,3.3559799194335938,-1.6007423400878906,0.0,13.75,0.0,3.2933950424194336,-1.3114213943481445,0.0,18.5,,,,,
0.0,-0.8723309636116028,2.724377393722534,8.16508727297105e-09,-0.7074899673461914,-0.9403831958770752,2.7710528982538563e-08,-0.5892027616500854,-0.797632098197937,3.244027935167537e-09,0.0,3.1131505966186523,-1.7273426055908203,0.19175104796886444,15.5,0.0,2.802729606628418,-1.3346672058105469,-0.3835020959377289,19.75,0.0,2.9153823852539062,-1.4494657516479492,0.19175104796886444,19.5,0.0,3.0623674392700195,-1.4905929565429688,0.19175104796886444,18.0,0.0,2.7065277099609375,-1.2170076370239258,-1.72575943171978,21.0,0.0,2.6121139526367188,-0.9062290191650391,-1.72575943171978,20.25,0.0,2.2133588790893555,-0.6244182586669922,-1.342257335782051,17.75,0.0,2.3360252380371094,-0.6548166275024414,-1.342257335782051,20.5,0.0,2.4629831314086914,-0.6998777389526367,-1.342257335782051,21.75,0.0,1.8696784973144531,-1.2470483779907227,0.0,20.75,0.0,3.3048391342163086,-1.6912221908569336,0.0,14.5,,,,,,,,,,,,,,,
0.0,-1.0647456645965576,2.6231260299682617,8.023263831091754e-09,-1.024828314781189,-0.9730055332183838,2.4179366064913665e-08,-0.8535381555557251,-0.6826996803283691,8.127374329092163e-10,0.0,2.381443977355957,-1.1622905731201172,0.9587552398443222,18.0,0.0,2.638578414916992,-1.4047622680664062,-0.3835020959377289,14.0,0.0,2.8170347213745117,-1.452326774597168,-0.19175104796886444,19.5,0.0,2.9175281524658203,-1.44195556640625,-0.19175104796886444,20.75,0.0,3.0323266983032227,-1.3943910598754883,-0.19175104796886444,17.0,0.0,2.1407604217529297,-0.9069442749023438,-0.7670041918754578,23.75,0.0,2.1893978118896484,-0.9745359420776367,-0.7670041918754578,27.5,0.0,2.2466182708740234,-1.0099411010742188,0.9587552398443222,25.25,0.0,3.1110048294067383,-1.0843276977539062,0.0,22.5,0.0,3.190755844116211,-1.1408329010009766,0.0,22.25,,,,,,,,,,,,,,,,,,,,
0.0,-1.1871626377105713,2.4693052768707275,7.51135242893497e-09,-1.0857192277908325,-1.1997058391571045,2.0049952809131355e-08,-0.7803477048873901,-0.91993647813797,-2.014812761075291e-09,0.0,2.248406410217285,-1.4437437057495117,-1.342257335782051,14.5,0.0,1.9208192825317383,-1.1401176452636719,-0.7670041918754578,22.0,0.0,2.5931596755981445,-1.4702081680297852,-1.1505062878131866,13.25,0.0,2.742648124694824,-1.5381574630737305,-1.1505062878131866,17.75,0.0,2.7952194213867188,-1.6340017318725586,-1.1505062878131866,17.25,0.0,2.8856992721557617,-1.7673969268798828,-1.1505062878131866,13.5,0.0,2.117156982421875,-1.0896921157836914,-1.1505062878131866,22.0,0.0,2.2155046463012695,-1.1522769927978516,-1.1505062878131866,22.0,0.0,2.1829605102539062,-0.9759664535522461,0.0,25.0,0.0,3.0863285064697266,-1.1512041091918945,0.0,23.0,0.0,3.176450729370117,-1.1708736419677734,0.0,22.25,,,,,,,,,,,,,,,
0.0,-1.2391616106033325,2.332994222640991,7.302106475037817e-09,-1.014509916305542,-1.336631417274475,1.668008842159452e-08,-0.6121633052825928,-1.0046632289886475,-4.148126286906972e-09,0.0,2.50089168548584,-1.4444589614868164,-2.4927636235952377,12.5,0.0,2.658963203430176,-1.5263557434082031,-2.4927636235952377,12.75,0.0,2.058863639831543,-1.040339469909668,-0.5752531439065933,19.25,0.0,2.181529998779297,-1.072525978088379,-0.5752531439065933,24.25,0.0,2.2519826889038086,-1.0843276977539062,-0.9587552398443222,23.5,0.0,2.330303192138672,-1.2398958206176758,-0.9587552398443222,15.5,0.0,1.9522905349731445,-1.1783838272094727,0.0,25.5,0.0,2.1446943283081055,-1.049637794494629,0.0,27.25,0.0,3.072381019592285,-1.1440515518188477,0.0,23.0,0.0,3.1675100326538086,-1.1894702911376953,0.0,21.75,0.0,2.4172067642211914,-0.7932186126708984,0.0,25.25,,,,,,,,,,,,,,,
0.0,-1.3314167261123657,2.2010293006896973,7.75732988955724e-09,-1.0717744827270508,-1.403061032295227,1.4596131414634783e-08,-0.6263303756713867,-0.9474177360534668,-5.241935330246861e-09,0.0,1.8829107284545898,-1.1479854583740234,-0.19175104796886444,17.75,0.0,2.1268129348754883,-1.0800361633300781,-0.19175104796886444,18.0,0.0,2.24912166595459,-1.1072158813476562,-0.19175104796886444,17.25,0.0,2.113223075866699,-1.0875463485717773,0.0,27.25,,,,,,,,,,,,,,,,,,,,,,,,,,,,,,,,,,,,,,,,,,,,,,,,,,
0.0,-0.587346613407135,3.16211199760437,-5.171523365793407e-12,-0.4232948422431946,-0.23885083198547363,-4.376170259501322e-11,-0.3161472678184509,-0.2809831500053406,-1.9513292023876083e-11,0.0,3.346681594848633,-1.5513896942138672,-0.3835020959377289,15.25,0.0,3.3184289932250977,-1.3450384140014648,-0.3835020959377289,22.25,0.0,3.3026933670043945,-1.1258125305175781,-0.19175104796886444,23.75,0.0,3.258347511291504,-0.7688999176025391,-0.19175104796886444,21.75,0.0,3.143906593322754,-0.1609325408935547,-0.19175104796886444,20.0,0.0,3.0477046966552734,0.0457763671875,-0.3835020959377289,16.75,0.0,3.0984878540039062,0.02574920654296875,0.0,27.75,,,,,,,,,,,,,,,,,,,,,,,,,,,,,,,,,,,
0.0,-0.604286253452301,3.1316165924072266,-6.927416106028428e-12,-0.39915135502815247,-0.30499833822250366,-4.210434778606498e-11,-0.2591117322444916,-0.3525833785533905,-1.7220417800056786e-11,0.0,3.2612085342407227,-1.4848709106445312,-0.3835020959377289,17.0,0.0,3.3981800079345703,-1.5567541122436523,-0.3835020959377289,13.0,0.0,3.1914710998535156,-1.3579130172729492,-0.3835020959377289,20.5,0.0,3.163576126098633,-1.090407371520996,-0.3835020959377289,20.0,0.0,2.897500991821289,0.07975101470947266,-0.3835020959377289,21.5,0.0,2.9178857803344727,0.09620189666748047,-0.3835020959377289,25.5,0.0,2.9726028442382812,0.21600723266601562,-0.3835020959377289,20.75,0.0,3.0444860458374023,0.04220008850097656,0.0,26.0,0.0,3.084897994995117,0.0286102294921875,0.0,28.25,,,,,,,,,,,,,,,,,,,,,,,,,
0.0,-0.589718222618103,3.090954303741455,-8.442991097923347e-12,-0.317455530166626,-0.38907095789909363,-4.01079031098206e-11,-0.15476451814174652,-0.4441465437412262,-1.4840339027100136e-11,0.0,3.258347511291504,-1.009225845336914,-0.5752531439065933,24.0,0.0,3.343820571899414,-1.0492801666259766,-0.5752531439065933,17.0,0.0,3.196120262145996,-0.8829832077026367,-0.5752531439065933,25.0,0.0,3.0705928802490234,-0.3572702407836914,-0.5752531439065933,23.75,0.0,2.877473831176758,0.06008148193359375,-0.5752531439065933,23.25,0.0,2.9250383377075195,0.016808509826660156,-0.5752531439065933,25.75,0.0,2.962946891784668,0.0711679458618164,0.0,17.5,0.0,3.0423402786254883,0.004291534423828125,0.0,27.25,0.0,3.0791759490966797,-0.008940696716308594,0.0,29.0,,,,,,,,,,,,,,,,,,,,,,,,,
0.0,-0.6426661014556885,3.033869981765747,-9.047630700198539e-12,-0.3604819178581238,-0.48922669887542725,-3.6973025335784726e-11,-0.16929295659065247,-0.5319698452949524,-1.1892702968252511e-11,0.0,3.1195878982543945,-1.6776323318481445,-0.7670041918754578,14.25,0.0,3.106355667114258,-0.9913444519042969,-0.5752531439065933,26.25,0.0,3.1549930572509766,-1.1365413665771484,-0.5752531439065933,19.25,0.0,3.0705928802490234,-0.9015798568725586,-0.3835020959377289,25.0,0.0,2.9429197311401367,-0.6029605865478516,-0.5752531439065933,18.0,0.0,2.718687057495117,0.08296966552734375,-0.5752531439065933,15.25,0.0,2.7616024017333984,0.06794929504394531,-0.5752531439065933,20.5,0.0,3.0906200408935547,-0.15413761138916016,0.0,27.75,0.0,2.889275550842285,0.01823902130126953,0.0,20.75,0.0,3.0012130737304688,-0.026464462280273438,0.0,27.0,,,,,,,,,,,,,,,,,,,,
0.0,-0.6944469213485718,2.9640297889709473,-9.242086262961635e-12,-0.3853416442871094,-0.6278839707374573,-3.3369043639375207e-11,-0.1563062071800232,-0.6792757511138916,-8.7936047332704e-12,0.0,3.220796585083008,-1.4455318450927734,-0.7670041918754578,13.25,0.0,3.0645132064819336,-0.9541511535644531,-1.1505062878131866,26.5,0.0,3.1642913818359375,-1.0710954666137695,-1.1505062878131866,18.75,0.0,3.0112266540527344,-0.8339881896972656,-0.3835020959377289,28.75,0.0,2.9604434967041016,-0.5879402160644531,-0.3835020959377289,25.0,0.0,2.7222633361816406,-0.3333091735839844,-1.72575943171978,12.25,0.0,2.854585647583008,-0.36084651947021484,-0.7670041918754578,20.0,0.0,2.9886960983276367,-0.11980533599853516,0.0,26.25,0.0,2.873539924621582,-0.04971027374267578,0.0,21.25,,,,,,,,,,,,,,,,,,,,,,,,,
0.0,-0.7694423794746399,2.8702619075775146,-9.097922068490583e-12,-0.4371315836906433,-0.8105078339576721,-2.945717281210847e-11,-0.1596200317144394,-0.8709816336631775,-5.663046854370579e-12,0.0,2.971529960632324,-1.6254186630249023,-1.342257335782051,17.0,0.0,3.07309627532959,-1.7505884170532227,-0.7670041918754578,12.5,0.0,2.937197685241699,-1.2406110763549805,-1.1505062878131866,20.5,0.0,2.8771162033081055,-0.8089542388916016,-0.3835020959377289,26.75,0.0,2.935051918029785,-0.8515119552612305,-1.1505062878131866,27.25,0.0,2.6700496673583984,-0.35512447357177734,-1.342257335782051,18.0,0.0,2.8030872344970703,-0.42307376861572266,-1.342257335782051,22.25,,,,,,,,,,,,,,,,,,,,,,,,,,,,,,,,,,,
0.0,-0.803661048412323,2.7351725101470947,-8.274599755386802e-12,-0.3941015899181366,-1.0663923025131226,-2.4788508051765135e-11,-0.06256444752216339,-1.1456985473632812,-2.1939164894513308e-12,0.0,2.894282341003418,-1.6901493072509766,-0.19175104796886444,15.5,0.0,2.853870391845703,-1.3550519943237305,-1.5340083837509155,20.25,0.0,2.759099006652832,-1.0886192321777344,-1.5340083837509155,30.25,0.0,2.7887821197509766,-1.1862516403198242,-1.5340083837509155,26.0,0.0,2.693653106689453,-0.8676052093505859,-1.342257335782051,26.25,0.0,2.578139305114746,-0.4677772521972656,-1.5340083837509155,24.0,0.0,2.4611949920654297,-0.3458261489868164,-1.5340083837509155,20.0,0.0,2.349972724914551,-0.12409687042236328,-1.5340083837509155,14.0,0.0,1.736283302307129,-1.4333724975585938,0.0,22.5,0.0,1.839280128479004,-1.3779401779174805,0.0,21.0,,,,,,,,,,,,,,,,,,,,
0.0,-0.8974863290786743,2.598710060119629,-7.490853423663957e-12,-0.4864252507686615,-1.241282343864441,-2.0577251708120414e-11,-0.12868189811706543,-1.2255096435546875,7.108686469331493e-13,0.0,2.686142921447754,-1.283884048461914,-0.5752531439065933,18.75,0.0,2.7598142623901367,-1.3850927352905273,0.19175104796886444,20.25,0.0,2.8606653213500977,-1.4984607696533203,-0.7670041918754578,18.0,0.0,2.9844045639038086,-1.592874526977539,0.19175104796886444,16.0,0.0,2.5441646575927734,-1.0256767272949219,-2.109261527657509,20.0,0.0,2.372145652770996,-0.7138252258300781,-1.5340083837509155,24.25,0.0,2.2112131118774414,-0.6330013275146484,-1.9175104796886444,25.25,0.0,2.2755861282348633,-0.6526708602905273,-1.9175104796886444,27.5,0.0,1.8335580825805664,-1.3221502304077148,0.0,22.75,0.0,2.0291805267333984,-1.1397600173950195,0.0,22.25,,,,,,,,,,,,,,,,,,,,
0.0,-1.1148868799209595,2.4724719524383545,-6.909467789584234e-12,-0.846891462802887,-1.2972993850708008,-1.7038318672613073e-11,-0.49004244804382324,-1.065117359161377,2.9317390529137732e-12,0.0,2.030611038208008,-1.1011362075805664,0.3835020959377289,25.5,0.0,2.090334892272949,-1.2949705123901367,0.3835020959377289,19.5,0.0,2.369999885559082,-1.4884471893310547,-0.3835020959377289,14.25,0.0,2.649664878845215,-1.4591217041015625,0.19175104796886444,20.0,0.0,2.0105838775634766,-0.9974241256713867,-1.342257335782051,25.75,0.0,2.7369260787963867,-1.461625099182129,0.19175104796886444,22.75,0.0,2.823472023010254,-1.465916633605957,-0.19175104796886444,20.0,0.0,2.96938419342041,-1.507401466369629,-0.19175104796886444,13.25,0.0,1.9065141677856445,-1.1479854583740234,0.0,25.75,0.0,1.9791126251220703,-1.186966896057129,0.0,24.5,,,,,,,,,,,,,,,,,,,,
0.0,-1.2023223638534546,2.3167784214019775,-6.644082853335398e-12,-0.8755998611450195,-1.4613959789276123,-1.3994957970275834e-11,-0.4504378139972687,-1.1515259742736816,4.7978656637914785e-12,0.0,1.9251108169555664,-1.0710954666137695,0.19175104796886444,22.5,0.0,2.3910999298095703,-1.3668537139892578,-2.3010125756263733,16.0,0.0,2.4973154067993164,-1.4734268188476562,-2.109261527657509,18.25,0.0,2.5845766067504883,-1.5546083450317383,-2.109261527657509,15.5,0.0,2.083897590637207,-1.123666763305664,-1.1505062878131866,22.5,0.0,2.2541284561157227,-1.1726617813110352,-1.1505062878131866,19.0,0.0,1.9243955612182617,-1.0921955108642578,0.0,26.0,0.0,2.03704833984375,-1.096487045288086,0.0,24.25,0.0,3.229379653930664,-1.4301538467407227,0.0,13.25,,,,,,,,,,,,,,,,,,,,,,,,,
0.0,-0.2877386212348938,3.064157247543335,-1.2699652409821418e-23,-0.2752629518508911,-0.4090353846549988,3.1110001441169817e-23,-0.42597392201423645,-0.400867760181427,8.33860497371822e-23,0.0,3.349900245666504,-2.2373199462890625,-0.9587552398443222,13.25,0.0,3.2840967178344727,-1.9197463989257812,-1.342257335782051,17.75,0.0,3.284454345703125,-1.7273426055908203,-0.7670041918754578,16.5,0.0,3.2765865325927734,-1.0439157485961914,-0.5752531439065933,13.75,0.0,3.148198127746582,-0.7206201553344727,-0.7670041918754578,19.25,0.0,3.074169158935547,-0.47528743743896484,-0.3835020959377289,20.0,0.0,2.891421318054199,-0.09334087371826172,-0.7670041918754578,14.5,0.0,2.9822587966918945,-0.13911724090576172,-0.3835020959377289,19.0,0.0,3.322720527648926,-0.8461475372314453,0.0,24.5,,,,,,,,,,,,,,,,,,,,,,,,,
0.0,-0.4137536585330963,2.9893367290496826,-6.502482622984553e-24,-0.4792797863483429,-0.5358456373214722,4.2727552836916037e-23,-0.5581616163253784,-0.524950385093689,8.540800752234676e-23,0.0,3.147125244140625,-1.7720460891723633,-0.9587552398443222,18.25,0.0,3.198981285095215,-1.9469261169433594,-0.9587552398443222,16.25,0.0,3.1328201293945312,-1.2892484664916992,-1.1505062878131866,19.5,0.0,3.037691116333008,-0.9781122207641602,-0.3835020959377289,25.25,0.0,3.095269203186035,-1.007080078125,-0.3835020959377289,24.5,0.0,2.9300451278686523,-0.4413127899169922,-0.3835020959377289,20.0,0.0,2.725839614868164,-0.23066997528076172,-0.7670041918754578,21.0,0.0,2.5634765625,0.026106834411621094,-0.7670041918754578,13.0,0.0,2.6389360427856445,-0.05507469177246094,-0.7670041918754578,20.5,0.0,3.303050994873047,-0.8071660995483398,0.0,21.0,0.0,2.6857852935791016,0.06723403930664062,0.0,15.5,0.0,2.887129783630371,0.021457672119140625,0.0,19.25,0.0,3.043055534362793,0.022530555725097656,0.0,27.25,0.0,3.1027793884277344,-0.0972747802734375,0.0,30.5
0.0,-0.48690834641456604,2.890254020690918,-1.6069272160903422e-24,-0.5683064460754395,-0.6822115778923035,5.1419121316445277e-23,-0.5799103379249573,-0.6485797762870789,8.547365337143563e-23,0.0,2.992987632751465,-1.9698143005371094,-1.72575943171978,14.5,0.0,2.9500722885131836,-1.8868446350097656,-1.72575943171978,15.75,0.0,2.8395652770996094,-0.6830692291259766,-1.1505062878131866,19.5,0.0,2.9876232147216797,-0.6895065307617188,-0.5752531439065933,20.5,0.0,2.5963783264160156,-0.514984130859375,-0.7670041918754578,20.0,0.0,2.6693344116210938,-0.5872249603271484,-0.7670041918754578,21.25,0.0,2.5287866592407227,-0.3654956817626953,-0.7670041918754578,13.0,0.0,3.285527229309082,-0.8625984191894531,0.0,19.75,0.0,2.6428699493408203,-0.22029876708984375,0.0,18.0,0.0,2.857804298400879,-0.0826120376586914,0.0,20.25,,,,,,,,,,,,,,,,,,,,
0.0,-0.638415515422821,2.7827227115631104,2.4728840892242824e-24,-0.7736705541610718,-0.8615902662277222,5.781493416782584e-23,-0.692732036113739,-0.8201359510421753,8.397377004423357e-23,0.0,2.9278993606567383,-1.4473199844360352,-0.7670041918754578,15.0,0.0,3.0934810638427734,-1.4190673828125,-1.1505062878131866,13.5,0.0,2.897500991821289,-1.0063648223876953,-0.5752531439065933,16.5,0.0,2.4400949478149414,-0.5589723587036133,-0.9587552398443222,19.75,0.0,2.6568174362182617,-0.6211996078491211,-0.9587552398443222,21.5,0.0,2.7937889099121094,-0.7288455963134766,-0.9587552398443222,20.75,0.0,2.520918846130371,-0.5725622177124023,-0.9587552398443222,22.0,0.0,3.3867359161376953,-1.0317564010620117,0.0,17.25,0.0,3.2694339752197266,-0.9216070175170898,0.0,20.25,0.0,2.56955623626709,-0.5500316619873047,0.0,20.25,0.0,2.7980804443359375,-0.4159212112426758,0.0,22.0,,,,,,,,,,,,,,,
0.0,-0.8923504948616028,2.6575257778167725,5.680605522297326e-24,-1.1481990814208984,-1.0411286354064941,6.203305546957674e-23,-0.9509391784667969,-0.9511279463768005,8.107170854610652e-23,0.0,2.1468400955200195,-0.9913444519042969,-0.9587552398443222,18.25,0.0,2.753734588623047,-1.3622045516967773,-1.1505062878131866,17.5,0.0,2.899646759033203,-1.4702081680297852,-0.19175104796886444,17.0,0.0,3.055572509765625,-1.5281438827514648,-0.19175104796886444,14.75,0.0,3.156423568725586,-1.6787052154541016,-0.19175104796886444,12.75,0.0,2.3070573806762695,-0.8836984634399414,-0.7670041918754578,24.25,0.0,2.3996829986572266,-0.9341239929199219,-0.7670041918754578,26.5,0.0,2.519845962524414,-0.9788274765014648,-0.7670041918754578,25.5,0.0,2.6378631591796875,-1.1279582977294922,-1.1505062878131866,21.75,0.0,3.2497644424438477,-1.0002851486206055,0.0,19.75,0.0,3.344893455505371,-1.1690855026245117,0.0,16.5,,,,,,,,,,,,,,,
0.0,-1.0337135791778564,2.5054144859313965,8.847732962048602e-24,-1.250757098197937,-1.2485814094543457,6.520111455405708e-23,-0.9275762438774109,-1.1136482954025269,7.769346536203909e-23,0.0,2.352118492126465,-1.2853145599365234,-1.1505062878131866,19.5,0.0,2.545595169067383,-1.4226436614990234,-1.1505062878131866,14.75,0.0,2.094268798828125,-0.9988546371459961,-0.7670041918754578,23.75,0.0,2.254486083984375,-1.0306835174560547,-0.9587552398443222,24.0,0.0,2.743363380432129,-1.4008283615112305,-1.1505062878131866,15.5,0.0,2.186894416809082,-0.9455680847167969,-0.9587552398443222,26.75,0.0,2.9239654541015625,-1.3132095336914062,-0.3835020959377289,12.75,0.0,2.146124839782715,-0.9698867797851562,0.0,17.25,,,,,,,,,,,,,,,,,,,,,,,,,,,,,,
0.0,-1.1614201068878174,2.3417131900787354,1.2960160313135268e-23,-1.3178260326385498,-1.4341729879379272,6.890973899611831e-23,-0.8827976584434509,-1.2166963815689087,7.489844282241966e-23,0.0,2.0252466201782227,-1.1014938354492188,-0.9587552398443222,23.5,0.0,2.063870429992676,-1.192331314086914,-0.7670041918754578,26.0,0.0,2.1303892135620117,-1.256704330444336,-1.1505062878131866,23.75,0.0,2.3031234741210938,-1.2792348861694336,-1.1505062878131866,17.25,0.0,1.9730329513549805,-1.2137889862060547,0.0,21.25,,,,,,,,,,,,,,,,,,,,,,,,,,,,,,,,,,,,,,,,,,,,,
0.0,-1.2758877277374268,2.187983989715576,1.6634427496191407e-23,-1.3704133033752441,-1.5509190559387207,7.134827844811198e-23,-0.8541073799133301,-1.2045897245407104,7.149163656269599e-23,0.0,2.0112991333007812,-1.1386871337890625,-0.7670041918754578,24.5,0.0,2.1032094955444336,-1.2602806091308594,-0.7670041918754578,19.5,0.0,2.316713333129883,-1.3006925582885742,-0.5752531439065933,13.5,0.0,1.9894838333129883,-1.0203123092651367,-0.3835020959377289,25.25,0.0,1.9598007202148438,-1.1458396911621094,0.0,26.0,0.0,3.0695199966430664,-1.3747215270996094,0.0,17.75,,,,,,,,,,,,,,,,,,,,,,,,,,,,,,,,,,,,,,,,
0.0,-0.4128968417644501,3.092872142791748,-3.4694333723213426e-27,-0.14962482452392578,-0.4041598439216614,-2.974696790421656e-26,0.0025127604603767395,-0.5774549245834351,-1.3184954917873904e-26,0.0,3.2508373260498047,-0.7807016372680664,-0.9587552398443222,23.5,0.0,3.293752670288086,-0.8429288864135742,-0.9587552398443222,21.75,0.0,3.373861312866211,-0.9680986404418945,-0.9587552398443222,14.25,0.0,3.1217336654663086,-0.6594657897949219,-0.9587552398443222,18.25,0.0,2.8409957885742188,0.17917156219482422,-0.7670041918754578,17.0,0.0,2.910733222961426,0.09584426879882812,-0.3835020959377289,18.5,0.0,3.2579898834228516,-1.4126300811767578,0.0,22.25,0.0,3.42714786529541,-1.4344453811645508,0.0,13.75,0.0,3.249049186706543,-0.8200407028198242,0.0,25.25,0.0,3.120303153991699,-0.07617473602294922,0.0,23.0,0.0,2.902865409851074,0.24998188018798828,0.0,15.5,0.0,3.003716468811035,0.1462697982788086,0.0,21.75,,,,,,,,,,
0.0,-0.49298688769340515,3.04762864112854,-4.72518091096263e-27,-0.26473599672317505,-0.4594593346118927,-2.86934164319027e-26,-0.09813380986452103,-0.5634478330612183,-1.1647099086908719e-26,0.0,3.332376480102539,-1.2488365173339844,-0.7670041918754578,14.0,0.0,3.176093101501465,-0.9527206420898438,0.19175104796886444,18.75,0.0,3.2765865325927734,-1.0492801666259766,-0.5752531439065933,16.75,0.0,2.99835205078125,-0.5854368209838867,0.19175104796886444,17.75,0.0,2.822399139404297,-0.2853870391845703,-0.5752531439065933,22.25,0.0,2.853512763977051,-0.35762786865234375,-0.5752531439065933,22.5,0.0,2.7551651000976562,-0.18453598022460938,-0.5752531439065933,13.25,0.0,3.2318830490112305,-1.4165639877319336,0.0,18.5,0.0,3.264784812927246,-1.0886192321777344,0.0,25.5,0.0,3.2529830932617188,-0.6880760192871094,0.0,24.75,0.0,2.981901168823242,0.1087188720703125,0.0,22.25,,,,,,,,,,,,,,,
0.0,-0.5849452614784241,2.969646453857422,-5.4178073339084895e-27,-0.3693597912788391,-0.6384908556938171,-2.6738323285925576e-26,-0.1586240828037262,-0.7712932229042053,-9.563021019952136e-27,0.0,3.163576126098633,-1.1866092681884766,-0.9587552398443222,18.5,0.0,3.3162832260131836,-1.2656450271606445,-0.9587552398443222,14.25,0.0,3.004789352416992,-0.9655952453613281,-0.9587552398443222,23.5,0.0,3.0695199966430664,-1.0857582092285156,-0.9587552398443222,23.0,0.0,2.9060840606689453,-0.5861520767211914,-0.9587552398443222,20.0,0.0,2.7680397033691406,-0.27358531951904297,-0.7670041918754578,19.75,0.0,2.6879310607910156,-0.16450881958007812,-0.7670041918754578,16.25,0.0,3.2161474227905273,-0.7592439651489258,0.0,25.25,0.0,2.8417110443115234,0.02682209014892578,0.0,20.0,0.0,2.973318099975586,-0.0010728836059570312,0.0,22.5,,,,,,,,,,,,,,,,,,,,
0.0,-0.7003750801086426,2.8962230682373047,-5.842738353862267e-27,-0.5038695335388184,-0.7867815494537354,-2.4489293171092116e-26,-0.24203568696975708,-0.9079151153564453,-7.416689963845158e-27,0.0,2.9343366622924805,-1.2434720993041992,-0.9587552398443222,19.5,0.0,3.0748844146728516,-1.292109489440918,-0.9587552398443222,21.5,0.0,3.142118453979492,-1.3661384582519531,-0.9587552398443222,20.5,0.0,3.2404661178588867,-1.375436782836914,-0.9587552398443222,15.75,0.0,2.870321273803711,-0.9130239486694336,-0.9587552398443222,16.25,0.0,2.724766731262207,-0.0883340835571289,-0.7670041918754578,13.75,0.0,2.604246139526367,-0.01609325408935547,-0.7670041918754578,15.25,0.0,3.2415390014648438,-1.0492801666259766,0.0,19.5,0.0,3.1921863555908203,-0.7832050323486328,0.0,23.5,0.0,3.108859062194824,-0.4169940948486328,0.0,24.5,0.0,2.6743412017822266,-0.027179718017578125,0.0,17.75,0.0,2.8073787689208984,0.05793571472167969,0.0,20.75,,,,,,,,,,
0.0,-0.8134446144104004,2.799077272415161,-5.980453900465621e-27,-0.6061568260192871,-0.9748627543449402,-2.1896560057639354e-26,-0.27855968475341797,-1.089150071144104,-5.158745104485118e-27,0.0,3.0791759490966797,-1.430511474609375,-1.1505062878131866,16.75,0.0,3.2308101654052734,-1.523137092590332,-1.72575943171978,12.25,0.0,2.7827024459838867,-1.1057853698730469,-0.5752531439065933,16.5,0.0,2.920389175415039,-1.2241601943969727,-1.9175104796886444,20.0,0.0,3.002285957336426,-1.3210773468017578,-1.1505062878131866,19.5,0.0,2.672553062438965,-0.7113218307495117,-0.5752531439065933,14.75,0.0,2.578139305114746,-0.1748800277709961,-0.5752531439065933,15.0,0.0,3.2258033752441406,-1.0939836502075195,0.0,21.0,0.0,3.187894821166992,-0.8386373519897461,0.0,24.25,0.0,3.117799758911133,-0.4413127899169922,0.0,24.5,0.0,2.6721954345703125,-0.07081031799316406,0.0,18.0,0.0,2.800583839416504,-0.02396106719970703,0.0,20.75,,,,,,,,,,
0.0,-0.9542797207832336,2.6783411502838135,-5.751252059272007e-27,-0.7425300478935242,-1.1795161962509155,-1.892565596253858e-26,-0.34062424302101135,-1.2577381134033203,-2.788610203632655e-27,0.0,2.8531551361083984,-1.6039609909057617,-1.72575943171978,19.75,0.0,2.9736757278442383,-1.649022102355957,-0.5752531439065933,17.5,0.0,2.7669668197631836,-1.4140605926513672,-1.5340083837509155,21.5,0.0,3.2025575637817383,-1.532435417175293,0.19175104796886444,13.0,0.0,2.579927444458008,-1.0743141174316406,-1.5340083837509155,22.5,0.0,2.670764923095703,-1.1959075927734375,-1.5340083837509155,22.5,0.0,2.5295019149780273,-0.8379220962524414,-1.5340083837509155,18.25,0.0,2.4672746658325195,-0.3508329391479492,-0.9587552398443222,13.5,0.0,3.1092166900634766,-1.053929328918457,0.0,22.75,0.0,3.19826602935791,-1.1883974075317383,0.0,19.75,0.0,3.552675247192383,-1.2241601943969727,0.0,12.5,0.0,2.777695655822754,-0.12409687042236328,0.0,20.5,,,,,,,,,,
0.0,-1.0779978036880493,2.52487850189209,-5.932845297426357e-27,-0.8674505949020386,-1.3532620668411255,-1.676588884876758e-26,-0.42292511463165283,-1.3027793169021606,-1.1431780889498204e-27,0.0,2.5048255920410156,-1.3636350631713867,-1.9175104796886444,20.25,0.0,2.6024580001831055,-1.479506492614746,-1.9175104796886444,15.0,0.0,2.0688772201538086,-1.0596513748168945,0.19175104796886444,20.5,0.0,2.342820167541504,-1.073598861694336,-0.5752531439065933,27.0,0.0,2.4154186248779297,-1.2263059616088867,-0.5752531439065933,25.5,0.0,2.279520034790039,-0.9108781814575195,-0.7670041918754578,24.75,0.0,3.3216476440429688,-1.294255256652832,0.0,15.5,0.0,3.1092166900634766,-1.0389089584350586,0.0,20.25,0.0,3.198981285095215,-1.175522804260254,0.0,19.25,,,,,,,,,,,,,,,,,,,,,,,,,
0.0,-1.1495941877365112,2.3574025630950928,-6.040377284755285e-27,-0.8574687838554382,-1.547001600265503,-1.4610619166602711e-26,-0.3547517955303192,-1.3975279331207275,4.1034152284606105e-28,0.0,2.02023983001709,-1.1261701583862305,-1.342257335782051,21.5,0.0,2.129673957824707,-1.0957717895507812,-1.342257335782051,23.5,0.0,2.26593017578125,-1.0846853256225586,-1.342257335782051,22.5,0.0,2.369999885559082,-1.2431144714355469,-1.342257335782051,19.0,0.0,2.508401870727539,-1.3475418090820312,-1.72575943171978,14.0,0.0,2.558469772338867,-1.0710954666137695,0.0,22.25,,,,,,,,,,,,,,,,,,,,,,,,,,,,,,,,,,,,,,,,
0.0,-1.2049875259399414,2.200218677520752,-5.649902692250551e-27,-0.8250813484191895,-1.6841777563095093,-1.1946492600483492e-26,-0.2856075167655945,-1.4057179689407349,2.1881911434482344e-27,0.0,2.05385684967041,-1.111149787902832,-1.342257335782051,17.5,0.0,2.109646797180176,-1.201629638671875,-1.342257335782051,22.5,0.0,2.199411392211914,-1.234889030456543,-1.342257335782051,22.0,0.0,2.051711082458496,-1.1097192764282227,-1.342257335782051,17.5,0.0,2.3882389068603516,-1.1855363845825195,-1.1505062878131866,18.25,0.0,2.6303529739379883,-1.0911226272583008,-0.3835020959377289,12.25,0.0,1.8500089645385742,-1.2903213500976562,0.0,19.75,,,,,,,,,,,,,,,,,,,,,,,,,,,,,,,,,,,
0.0,-0.3049161732196808,3.0625810623168945,2.1690830667446575e-31,-0.05089442431926727,-0.3306487798690796,9.16876753923866e-31,-0.016664713621139526,-0.35474175214767456,8.649539459339208e-31,0.0,2.818465232849121,-2.1811723709106445,-0.3835020959377289,15.75,0.0,3.06093692779541,-0.5736351013183594,-0.3835020959377289,18.0,0.0,3.302335739135742,-0.3451108932495117,-0.19175104796886444,21.25,0.0,3.340601921081543,-0.5328655242919922,-0.3835020959377289,16.75,0.0,2.7544498443603516,0.1577138900756836,-0.7670041918754578,17.25,0.0,2.8009414672851562,0.17201900482177734,-0.7670041918754578,24.75,0.0,2.8281211853027344,0.2002716064453125,-0.5752531439065933,23.5,0.0,3.5791397094726562,-1.1916160583496094,0.0,12.5,0.0,3.288745880126953,-0.8153915405273438,0.0,22.0,0.0,3.196120262145996,-0.38802623748779297,0.0,26.25,0.0,3.0258893966674805,0.0711679458618164,0.0,27.25,0.0,3.090977668762207,-0.058650970458984375,0.0,29.0,0.0,2.9250383377075195,0.09655952453613281,0.0,19.5,0.0,3.5451650619506836,1.3529062271118164,0.0,13.25
0.0,-0.36613768339157104,3.0140116214752197,2.301570684037136e-31,-0.14603383839130402,-0.40862107276916504,8.923107087430935e-31,-0.0920863002538681,-0.41761642694473267,7.934711000253888e-31,0.0,3.0333995819091797,-0.9216070175170898,-0.3835020959377289,24.5,0.0,3.109574317932129,-0.9477138519287109,-0.3835020959377289,26.0,0.0,3.183603286743164,-0.9520053863525391,-0.5752531439065933,18.0,0.0,2.9010772705078125,-0.16736984252929688,-0.5752531439065933,23.0,0.0,2.7555227279663086,0.02396106719970703,-0.5752531439065933,16.25,0.0,2.808809280395508,0.01895427703857422,-0.5752531439065933,23.75,0.0,3.560185432434082,-1.2155771255493164,0.0,12.75,0.0,3.0548572540283203,-0.12767314910888672,0.0,26.75,0.0,2.77554988861084,0.05829334259033203,0.0,13.75,0.0,2.887129783630371,0.019669532775878906,0.0,23.75,0.0,2.9615163803100586,-0.0050067901611328125,0.0,27.75,0.0,3.497958183288574,1.4723539352416992,0.0,13.25,,,,,,,,,,
0.0,-0.42870715260505676,2.9514331817626953,2.3660322081486583e-31,-0.22914879024028778,-0.52349853515625,8.535534374823578e-31,-0.1461096554994583,-0.5355228781700134,7.165465616284821e-31,0.0,3.0906200408935547,-1.2477636337280273,-0.7670041918754578,18.25,0.0,3.0301809310913086,-0.9548664093017578,-0.7670041918754578,25.25,0.0,3.041982650756836,-1.1125802993774414,-0.7670041918754578,24.75,0.0,2.893209457397461,-0.09262561798095703,-0.5752531439065933,20.75,0.0,2.70688533782959,-0.013947486877441406,-0.9587552398443222,21.0,0.0,2.742648124694824,-0.06508827209472656,-0.5752531439065933,24.5,0.0,3.1217336654663086,-0.9398460388183594,0.0,26.0,0.0,2.7365684509277344,0.037550926208496094,0.0,20.0,0.0,2.8238296508789062,0.034332275390625,0.0,26.0,0.0,2.9278993606567383,0.023245811462402344,0.0,27.25,0.0,3.5033226013183594,1.4601945877075195,0.0,13.5,,,,,,,,,,,,,,,
0.0,-0.5105801820755005,2.866703748703003,2.260354560713124e-31,-0.3276682198047638,-0.6924304962158203,7.881194974240612e-31,-0.20033365488052368,-0.7254764437675476,6.2627503719437295e-31,0.0,2.99227237701416,-1.1973381042480469,-0.9587552398443222,21.5,0.0,3.071308135986328,-1.3335943222045898,-0.9587552398443222,16.0,0.0,2.9554367065429688,-0.971674919128418,-0.9587552398443222,24.5,0.0,2.8553009033203125,-0.7928609848022461,-0.9587552398443222,22.75,0.0,2.666473388671875,-0.1348257064819336,-0.9587552398443222,18.5,0.0,2.7544498443603516,-0.23031234741210938,-0.9587552398443222,22.0,0.0,2.512693405151367,0.1055002212524414,-1.1505062878131866,12.5,0.0,3.3205747604370117,-1.7369985580444336,0.0,12.75,0.0,3.1185150146484375,-0.9537935256958008,0.0,26.0,0.0,3.3205747604370117,1.3943910598754883,0.0,12.0,0.0,3.4650564193725586,1.5478134155273438,0.0,13.5,,,,,,,,,,,,,,,
0.0,-0.5986729860305786,2.7610881328582764,2.27024070330241e-31,-0.4225201904773712,-0.8795024156570435,7.380716499434515e-31,-0.2446947991847992,-0.909079372882843,5.513315829367941e-31,0.0,2.828836441040039,-1.088261604309082,-0.5752531439065933,24.0,0.0,2.915024757385254,-1.2159347534179688,-0.5752531439065933,15.0,0.0,2.8084516525268555,-0.9984970092773438,-1.5340083837509155,26.25,0.0,2.7544498443603516,-0.697016716003418,-1.5340083837509155,21.0,0.0,2.4461746215820312,-0.26929378509521484,-1.5340083837509155,16.0,0.0,2.5784969329833984,-0.3858804702758789,-1.1505062878131866,18.25,0.0,3.314852714538574,-1.7409324645996094,0.0,13.0,0.0,3.149271011352539,-1.2263059616088867,0.0,20.25,0.0,3.095269203186035,-0.995635986328125,0.0,23.0,,,,,,,,,,,,,,,,,,,,,,,,,
0.0,-0.7605737447738647,2.624473810195923,2.0692699606253758e-31,-0.627314031124115,-1.1129391193389893,6.579460523501596e-31,-0.37401023507118225,-1.128073811531067,4.608737191381926e-31,0.0,2.787351608276367,-1.6078948974609375,-2.109261527657509,19.25,0.0,2.9071569442749023,-1.6726255416870117,-2.109261527657509,14.75,0.0,2.7261972427368164,-1.4380216598510742,-0.3835020959377289,20.75,0.0,2.7126073837280273,-1.1458396911621094,-0.3835020959377289,22.5,0.0,2.6088953018188477,-0.9520053863525391,-0.3835020959377289,23.25,0.0,2.2416114807128906,-0.6465911865234375,-1.72575943171978,20.5,0.0,2.3328065872192383,-0.5682706832885742,-1.5340083837509155,24.75,0.0,2.461552619934082,-0.6226301193237305,-1.5340083837509155,22.5,0.0,3.0798912048339844,-1.4022588729858398,0.0,19.75,0.0,3.0570030212402344,-1.1383295059204102,0.0,22.25,0.0,2.991914749145508,-0.8715391159057617,0.0,20.0,,,,,,,,,,,,,,,
0.0,-0.9478192329406738,2.4719152450561523,2.028528266821356e-31,-0.8820756077766418,-1.2970061302185059,6.034145402770955e-31,-0.5631613731384277,-1.205318570137024,3.939522850184784e-31,0.0,2.361416816711426,-1.3271570205688477,-2.3010125756263733,16.75,0.0,2.096414566040039,-0.9756088256835938,-1.1505062878131866,31.0,0.0,2.1625757217407227,-1.0800361633300781,-2.3010125756263733,24.0,0.0,2.6292800903320312,-1.3768672943115234,0.3835020959377289,17.5,0.0,2.7240514755249023,-1.420140266418457,0.3835020959377289,18.75,0.0,2.823472023010254,-1.511693000793457,0.3835020959377289,15.25,0.0,2.077460289001465,-0.9330511093139648,-1.1505062878131866,30.5,0.0,3.094911575317383,-1.3579130172729492,0.0,19.5,0.0,2.9761791229248047,-0.9806156158447266,0.0,20.75,0.0,3.0548572540283203,-1.120448112487793,0.0,22.0,,,,,,,,,,,,,,,,,,,,
0.0,-1.1009185314178467,2.3278679847717285,1.9654172681694932e-31,-1.0374270677566528,-1.4532766342163086,5.460818721857958e-31,-0.6394620537757874,-1.2617878913879395,3.2885987308886965e-31,0.0,2.1686553955078125,-1.2466907501220703,-0.9587552398443222,17.5,0.0,2.371072769165039,-1.4433860778808594,-1.342257335782051,12.5,0.0,2.579927444458008,-1.486659049987793,-1.72575943171978,17.5,0.0,2.6657581329345703,-1.5077590942382812,-0.9587552398443222,18.25,0.0,2.764463424682617,-1.5950202941894531,-0.9587552398443222,13.75,0.0,2.0956993103027344,-1.0442733764648438,-0.9587552398443222,21.25,0.0,2.025604248046875,-0.8790493011474609,-0.9587552398443222,21.25,0.0,3.003716468811035,-1.9140243530273438,0.0,15.75,0.0,3.0469894409179688,-1.4483928680419922,0.0,19.25,0.0,3.034830093383789,-1.153707504272461,0.0,22.5,,,,,,,,,,,,,,,,,,,,
