tid,posx,posy,posz,velx,vely,velz,accx,accy,accz,pointx1,pointy1,pointz1,doppler1,snr1,pointx2,pointy2,pointz2,doppler2,snr2,pointx3,pointy3,pointz3,doppler3,snr3,pointx4,pointy4,pointz4,doppler4,snr4,pointx5,pointy5,pointz5,doppler5,snr5,pointx6,pointy6,pointz6,doppler6,snr6,pointx7,pointy7,pointz7,doppler7,snr7,pointx8,pointy8,pointz8,doppler8,snr8,pointx9,pointy9,pointz9,doppler9,snr9,pointx10,pointy10,pointz10,doppler10,snr10,pointx11,pointy11,pointz11,doppler11,snr11,pointx12,pointy12,pointz12,doppler12,snr12,pointx13,pointy13,pointz13,doppler13,snr13,pointx14,pointy14,pointz14,doppler14,snr14,pointx15,pointy15,pointz15,doppler15,snr15
0.0,3.877203133982746e-21,3.172222375869751,-0.21939164400100708,-2.802746086153654e-20,-0.17439860105514526,-0.17519116401672363,-1.657940719959908e-20,-0.2577182650566101,-0.14518073201179504,0.0,3.2851696014404297,-1.0221004486083984,-0.3835020959377289,21.25,0.0,3.3899545669555664,-1.0614395141601562,-0.19175104796886444,15.75,0.0,3.2308101654052734,-0.46563148498535156,-0.3835020959377289,20.25,0.0,3.0684471130371094,0.04756450653076172,-0.3835020959377289,18.75,0.0,3.1174421310424805,0.01609325408935547,-0.3835020959377289,21.75,0.0,3.493666648864746,-1.2413263320922852,0.0,13.25,0.0,3.432154655456543,-1.0002851486206055,0.0,22.25,0.0,3.3742189407348633,-0.7621049880981445,0.0,24.5,0.0,3.149271011352539,0.031113624572753906,0.0,26.75,0.0,3.2422542572021484,0.010013580322265625,0.0,25.5,0.0,3.085970878601074,0.13589859008789062,0.0,21.75,,,,,,,,,,,,,,,,,,,,
0.0,8.852864155138266e-22,3.1424484252929688,-0.25577783584594727,-2.989012296698964e-20,-0.24391376972198486,-0.21942751109600067,-1.673243561292139e-20,-0.33476555347442627,-0.16769874095916748,0.0,3.2351016998291016,-1.2395381927490234,-0.19175104796886444,24.0,0.0,3.2765865325927734,-1.4491081237792969,-0.5752531439065933,19.5,0.0,3.448605537414551,-1.3997554779052734,-0.19175104796886444,16.0,0.0,3.209352493286133,-0.6562471389770508,-0.19175104796886444,23.0,0.0,3.0902624130249023,-0.06186962127685547,-0.5752531439065933,24.5,0.0,2.9397010803222656,0.23174285888671875,-0.5752531439065933,14.25,0.0,3.025174140930176,0.14269351959228516,-0.5752531439065933,23.0,0.0,3.232240676879883,-0.07474422454833984,0.0,25.5,,,,,,,,,,,,,,,,,,,,,,,,,,,,,,,,,,,
0.0,-1.508445838037491e-21,3.1114883422851562,-0.2993556261062622,-3.06523149714947e-20,-0.3142956495285034,-0.2686571478843689,-1.613912739387066e-20,-0.40875691175460815,-0.19113826751708984,0.0,3.219723701477051,-0.75531005859375,-0.3835020959377289,24.0,0.0,3.355264663696289,-0.766754150390625,-0.3835020959377289,24.0,0.0,3.472566604614258,-0.6494522094726562,-0.19175104796886444,18.5,0.0,3.0434131622314453,-0.18131732940673828,-0.5752531439065933,24.75,0.0,2.9211044311523438,0.004291534423828125,-0.5752531439065933,21.5,0.0,2.954721450805664,-0.04398822784423828,-0.5752531439065933,26.75,,,,,,,,,,,,,,,,,,,,,,,,,,,,,,,,,,,,,,,,,,,,,
0.0,-3.1797533604877297e-21,3.0650486946105957,-0.37567558884620667,-3.0250499064249997e-20,-0.415613055229187,-0.3652903437614441,-1.481333297094575e-20,-0.5188701152801514,-0.2502184510231018,0.0,3.2808780670166016,-1.1386871337890625,-0.3835020959377289,16.75,0.0,3.209352493286133,-0.8608102798461914,-0.3835020959377289,30.0,0.0,3.2258033752441406,-0.937342643737793,-0.5752531439065933,25.0,0.0,3.121018409729004,-0.6430149078369141,-0.3835020959377289,24.25,0.0,2.7834177017211914,0.06330013275146484,-0.7670041918754578,13.75,0.0,2.8499364852905273,-0.010013580322265625,-0.7670041918754578,24.0,0.0,2.9075145721435547,-0.011086463928222656,-0.7670041918754578,24.75,0.0,3.110647201538086,0.017881393432617188,0.0,25.25,,,,,,,,,,,,,,,,,,,,,,,,,,,,,,,,,,,
0.0,-4.404218158374893e-21,3.003659725189209,-0.3677773177623749,-2.918617934100994e-20,-0.5479437112808228,-0.2979487478733063,-1.3115604540404614e-20,-0.669472336769104,-0.15669748187065125,0.0,3.275156021118164,-1.0349750518798828,-0.5752531439065933,18.0,0.0,3.3506155014038086,-1.2248754501342773,-0.3835020959377289,16.25,0.0,3.188967704772949,-0.8032321929931641,-0.5752531439065933,21.5,0.0,3.031611442565918,-0.32722949981689453,-0.9587552398443222,22.0,0.0,2.864241600036621,0.0514984130859375,-0.9587552398443222,26.75,0.0,2.7430057525634766,0.15985965728759766,-0.9587552398443222,21.0,0.0,2.8045177459716797,0.10335445404052734,-0.9587552398443222,27.5,,,,,,,,,,,,,,,,,,,,,,,,,,,,,,,,,,,,,,,,
0.0,-5.556198831706396e-21,2.937832832336426,-0.40289413928985596,-2.799107460810701e-20,-0.6587494015693665,-0.31401512026786804,-1.1439355340808581e-20,-0.7542856335639954,-0.14914752542972565,0.0,3.081679344177246,-2.056717872619629,-0.9587552398443222,13.0,0.0,3.1392574310302734,-1.7774105072021484,-0.9587552398443222,17.75,0.0,3.200411796569824,-1.4004707336425781,-0.5752531439065933,16.5,0.0,3.170013427734375,-0.9101629257202148,-0.7670041918754578,16.5,0.0,3.083467483520508,-0.502467155456543,-0.7670041918754578,18.0,0.0,2.8960704803466797,-0.19562244415283203,-0.7670041918754578,16.5,0.0,2.670407295227051,0.041484832763671875,-0.9587552398443222,17.75,0.0,2.7272701263427734,-0.023245811462402344,-0.9587552398443222,19.5,0.0,3.2132863998413086,-1.8764734268188477,0.0,14.5,,,,,,,,,,,,,,,,,,,,,,,,,,,,,,
0.0,-6.041553922367204e-21,2.8388681411743164,-0.4540941119194031,-2.5877410038770947e-20,-0.8262634873390198,-0.35020971298217773,-9.243701340014603e-21,-0.9041372537612915,-0.15477046370506287,0.0,3.040909767150879,-1.554250717163086,-0.3835020959377289,15.0,0.0,3.022313117980957,-1.1698007583618164,-0.9587552398443222,15.75,0.0,2.9636621475219727,-0.9223222732543945,-0.9587552398443222,20.75,0.0,2.838134765625,-0.6004571914672852,-0.9587552398443222,19.5,0.0,2.5731325149536133,-0.08475780487060547,-1.1505062878131866,26.25,0.0,2.645730972290039,-0.2027750015258789,-1.1505062878131866,23.0,0.0,2.54058837890625,-0.011801719665527344,-1.1505062878131866,21.5,,,,,,,,,,,,,,,,,,,,,,,,,,,,,,,,,,,,,,,,
0.0,-6.634970789652689e-21,2.7395436763763428,-0.5235116481781006,-2.4012119373051003e-20,-0.9468523859977722,-0.4211966097354889,-7.360260360638943e-21,-0.9461053609848022,-0.20022052526474,0.0,2.942204475402832,-2.440810203552246,-0.7670041918754578,12.25,0.0,3.161787986755371,-1.750946044921875,-0.7670041918754578,12.5,0.0,3.161787986755371,-1.4090538024902344,-0.7670041918754578,13.75,0.0,2.545595169067383,-0.7925033569335938,-0.9587552398443222,13.5,0.0,2.4433135986328125,-0.37479400634765625,-0.9587552398443222,19.0,0.0,2.368927001953125,-0.09691715240478516,-0.9587552398443222,15.25,0.0,2.407550811767578,-0.19991397857666016,-0.9587552398443222,21.25,0.0,3.2014846801757812,-1.9104480743408203,0.0,15.0,,,,,,,,,,,,,,,,,,,,,,,,,,,,,,,,,,,
0.0,-6.4736665312370135e-21,2.631714344024658,-0.729570209980011,-2.1208586172845717e-20,-1.0530728101730347,-0.7295877933502197,-4.976338759958188e-21,-0.9427980780601501,-0.45908868312835693,0.0,2.693653106689453,-1.268148422241211,-1.5340083837509155,14.75,0.0,2.840280532836914,-1.3965368270874023,-1.72575943171978,15.5,0.0,2.9489994049072266,-1.440882682800293,-0.19175104796886444,16.75,0.0,3.017306327819824,-1.5631914138793945,-0.19175104796886444,15.5,0.0,2.3403167724609375,-0.9473562240600586,-0.5752531439065933,19.5,0.0,2.490520477294922,-1.0167360305786133,-0.5752531439065933,15.75,0.0,2.338528633117676,-0.6387233734130859,-0.5752531439065933,19.25,0.0,2.3059844970703125,-0.2002716064453125,-0.9587552398443222,14.75,0.0,3.1718015670776367,-1.9676685333251953,0.0,14.75,,,,,,,,,,,,,,,,,,,,,,,,,,,,,,
0.0,-6.511182483969918e-21,2.4958927631378174,-0.9777179956436157,-1.8828551674809108e-20,-1.1725817918777466,-1.0999088287353516,-3.0264151583324956e-21,-0.931389331817627,-0.7666339874267578,0.0,2.002716064453125,-1.0900497436523438,-0.19175104796886444,26.75,0.0,2.0302534103393555,-1.210927963256836,0.19175104796886444,27.5,0.0,2.6990175247192383,-1.5063285827636719,-2.109261527657509,13.75,0.0,2.843499183654785,-1.580357551574707,-0.19175104796886444,13.25,0.0,2.209782600402832,-1.1830329895019531,0.19175104796886444,25.25,0.0,2.4286508560180664,-1.120448112487793,0.19175104796886444,21.75,0.0,2.598881721496582,-1.2230873107910156,-1.1505062878131866,14.0,0.0,1.9533634185791016,-1.2667179107666016,0.0,26.0,0.0,3.162503242492676,-2.003788948059082,0.0,12.0,0.0,3.049135208129883,-0.7767677307128906,0.0,16.0,,,,,,,,,,,,,,,,,,,,,,,,,
0.0,-3.8643915280109773e-22,3.1652941703796387,-0.5512633323669434,-9.163968681834342e-22,-0.20399361848831177,-0.48692482709884644,-3.880064237822674e-22,-0.1017058789730072,-0.3340911865234375,0.0,3.0895471572875977,-1.2545585632324219,-0.19175104796886444,19.75,0.0,3.3216476440429688,-1.2617111206054688,-0.19175104796886444,17.0,0.0,3.5001039505004883,-1.3343095779418945,-0.19175104796886444,12.25,0.0,3.288745880126953,-1.109004020690918,-0.19175104796886444,22.5,0.0,2.9418468475341797,0.1169443130493164,-0.3835020959377289,24.5,0.0,2.968311309814453,0.1201629638671875,-0.3835020959377289,31.0,0.0,2.971172332763672,0.21064281463623047,-0.3835020959377289,28.75,0.0,3.365635871887207,-0.9044408798217773,0.0,28.5,0.0,3.4089088439941406,-0.9745359420776367,0.0,21.75,0.0,3.270864486694336,-0.42951107025146484,0.0,25.25,,,,,,,,,,,,,,,,,,,,,,,,,
0.0,-3.5707363521029004e-22,3.13474702835083,-0.5525997877120972,-8.029441802155456e-22,-0.2575393617153168,-0.4299326241016388,-2.952316355410706e-22,-0.17227813601493835,-0.252188503742218,0.0,3.322720527648926,-1.244187355041504,-0.3835020959377289,17.5,0.0,3.2712221145629883,-1.0564327239990234,-0.3835020959377289,21.75,0.0,3.167867660522461,-0.6437301635742188,-0.3835020959377289,23.0,0.0,3.0548572540283203,-0.22780895233154297,-0.3835020959377289,26.25,0.0,2.933621406555176,0.07367134094238281,-0.3835020959377289,19.25,0.0,2.9976367950439453,-0.058650970458984375,-0.3835020959377289,26.25,0.0,3.35848331451416,-0.8729696273803711,0.0,28.25,0.0,3.409266471862793,-0.9766817092895508,0.0,22.5,0.0,3.2351016998291016,-0.4734992980957031,0.0,27.0,,,,,,,,,,,,,,,,,,,,,,,,,,,,,,
0.0,-3.4207737678026412e-22,3.094536066055298,-0.4733297824859619,-7.117100562549072e-22,-0.29872414469718933,-0.24331031739711761,-2.21468546576994e-22,-0.20737145841121674,-0.07316470146179199,0.0,3.2433271408081055,-1.292109489440918,-0.5752531439065933,12.75,0.0,2.8989315032958984,0.04220008850097656,-0.3835020959377289,24.75,0.0,2.9332637786865234,-0.03790855407714844,-0.3835020959377289,29.0,0.0,2.9479265213012695,-0.02682209014892578,-0.3835020959377289,25.5,0.0,2.7930736541748047,0.10907649993896484,-0.3835020959377289,12.75,0.0,3.406047821044922,-1.5331506729125977,0.0,14.25,0.0,3.329157829284668,-0.8443593978881836,0.0,25.5,0.0,3.401041030883789,-1.0124444961547852,0.0,19.0,0.0,3.189682960510254,-0.4731416702270508,0.0,26.5,,,,,,,,,,,,,,,,,,,,,,,,,,,,,,
0.0,-2.9271172350898156e-22,3.052095890045166,-0.393204927444458,-5.795989019905946e-22,-0.36683517694473267,-0.06557214260101318,-1.26328059144348e-22,-0.2892216444015503,0.0879528820514679,0.0,3.3309459686279297,-1.3006925582885742,-0.5752531439065933,14.75,0.0,3.379225730895996,-0.9491443634033203,-0.5752531439065933,16.0,0.0,3.1996965408325195,-0.6247758865356445,-0.5752531439065933,13.0,0.0,2.865314483642578,0.048279762268066406,-0.5752531439065933,28.5,0.0,2.9593706130981445,0.029325485229492188,-0.5752531439065933,22.25,0.0,2.774834632873535,0.13697147369384766,-0.5752531439065933,19.25,0.0,2.833127975463867,0.09298324584960938,-0.5752531439065933,28.25,0.0,3.4235715866088867,-1.4945268630981445,0.0,14.25,0.0,3.401041030883789,-1.041412353515625,0.0,19.25,0.0,3.3087730407714844,-0.9212493896484375,0.0,24.75,0.0,3.1871795654296875,-0.5103349685668945,0.0,26.75,,,,,,,,,,,,,,,,,,,,
0.0,-2.6297386357090955e-22,3.0080108642578125,-0.4628133177757263,-4.7864692044539615e-22,-0.43926867842674255,-0.1615329384803772,-5.582555318260329e-23,-0.358532577753067,0.004876427352428436,0.0,3.098130226135254,-0.9827613830566406,-0.5752531439065933,28.5,0.0,3.1496286392211914,-0.9927749633789062,-0.7670041918754578,23.0,0.0,3.1228065490722656,-0.9298324584960938,-0.5752531439065933,30.75,0.0,3.022313117980957,-0.5067586898803711,-0.5752531439065933,16.0,0.0,2.7794837951660156,-0.16772747039794922,-0.5752531439065933,17.75,0.0,2.936124801635742,0.37729740142822266,-0.3835020959377289,15.25,0.0,3.3838748931884766,-1.0532140731811523,0.0,19.75,0.0,3.502964973449707,-1.2878179550170898,0.0,14.5,0.0,3.153562545776367,-0.9126663208007812,0.0,29.0,0.0,3.2694339752197266,-0.9663105010986328,0.0,24.5,,,,,,,,,,,,,,,,,,,,,,,,,
0.0,-2.2317432891134596e-22,2.9433329105377197,-0.48945069313049316,-3.6949797989735476e-22,-0.5526459217071533,-0.16927537322044373,1.6186889349719612e-23,-0.47979068756103516,0.008524954319000244,0.0,3.1861066818237305,-1.5785694122314453,-0.19175104796886444,12.75,0.0,3.167867660522461,-1.3339519500732422,-0.9587552398443222,15.75,0.0,3.1485557556152344,-0.9691715240478516,-0.9587552398443222,17.0,0.0,2.980470657348633,-0.48029422760009766,-0.9587552398443222,18.5,0.0,2.780914306640625,-0.14340877532958984,-0.7670041918754578,27.0,0.0,2.8238296508789062,-0.20420551300048828,-0.7670041918754578,25.0,0.0,2.7326345443725586,-0.08618831634521484,-0.7670041918754578,21.25,,,,,,,,,,,,,,,,,,,,,,,,,,,,,,,,,,,,,,,,
0.0,-1.9502254639842408e-22,2.849595546722412,-0.5004399418830872,-2.819872036787126e-22,-0.6954342126846313,-0.14810161292552948,7.060533555846208e-23,-0.6116809844970703,0.036852434277534485,0.0,2.8148889541625977,-1.4101266860961914,-0.9587552398443222,23.5,0.0,2.910017967224121,-1.2509822845458984,-1.5340083837509155,17.25,0.0,2.674698829650879,-0.2592802047729492,-0.5752531439065933,27.25,0.0,2.656102180480957,-0.17452239990234375,-0.9587552398443222,25.5,0.0,2.797365188598633,-0.11980533599853516,-0.9587552398443222,19.75,0.0,2.5763511657714844,-0.018596649169921875,-0.9587552398443222,17.25,,,,,,,,,,,,,,,,,,,,,,,,,,,,,,,,,,,,,,,,,,,,,
0.0,-1.582639506216299e-22,2.7408061027526855,-0.5978493094444275,-1.8866624601206422e-22,-0.8663548231124878,-0.27852463722229004,1.2561939699419537e-22,-0.7659969925880432,-0.06444474309682846,0.0,2.94649600982666,-1.6894340515136719,-0.5752531439065933,13.0,0.0,2.847433090209961,-1.4147758483886719,-0.5752531439065933,17.0,0.0,2.7251243591308594,-1.0846853256225586,-1.5340083837509155,24.0,0.0,2.809882164001465,-1.16729736328125,-0.5752531439065933,21.0,0.0,2.62606143951416,-0.6415843963623047,-1.5340083837509155,25.0,0.0,2.5380849838256836,-0.26428699493408203,-1.1505062878131866,29.0,0.0,2.523064613342285,-0.19919872283935547,-1.1505062878131866,25.5,0.0,1.67083740234375,-1.453399658203125,0.0,24.0,0.0,3.4096240997314453,-1.5975236892700195,0.0,12.25,0.0,3.31270694732666,-1.268148422241211,0.0,16.5,,,,,,,,,,,,,,,,,,,,,,,,,
0.0,-1.2084431464980948e-22,2.6142477989196777,-0.7714776992797852,-1.012399220864914e-22,-1.0341354608535767,-0.5344401597976685,1.7347546079369804e-22,-0.8788443803787231,-0.2690751552581787,0.0,2.7333498001098633,-1.4920234680175781,-0.3835020959377289,19.5,0.0,2.8020143508911133,-1.590728759765625,0.19175104796886444,19.0,0.0,2.92360782623291,-1.6179084777832031,0.19175104796886444,14.25,0.0,2.6836395263671875,-1.292109489440918,-0.3835020959377289,19.0,0.0,2.5162696838378906,-0.9877681732177734,-1.9175104796886444,18.75,0.0,2.3392438888549805,-0.7714033126831055,-1.5340083837509155,24.75,0.0,2.2770166397094727,-0.5464553833007812,-2.3010125756263733,23.5,0.0,2.2916793823242188,-0.6734132766723633,-1.5340083837509155,27.5,0.0,1.9497871398925781,-1.193404197692871,0.0,24.75,0.0,2.923250198364258,-0.14269351959228516,0.0,26.5,,,,,,,,,,,,,,,,,,,,,,,,,
0.0,-9.079910819217612e-23,2.4776179790496826,-0.9593862891197205,-3.02242589504568e-23,-1.191118597984314,-0.7940481901168823,2.0814994916777073e-22,-0.9594133496284485,-0.46418076753616333,0.0,2.1303892135620117,-1.2720823287963867,-2.4927636235952377,24.75,0.0,2.371072769165039,-1.2924671173095703,-2.4927636235952377,17.0,0.0,2.1250247955322266,-0.9970664978027344,-1.342257335782051,28.0,0.0,2.6525259017944336,-1.2842416763305664,0.3835020959377289,16.5,0.0,2.7251243591308594,-1.4344453811645508,0.7670041918754578,18.5,0.0,2.858877182006836,-1.48773193359375,-0.19175104796886444,15.75,0.0,3.020167350769043,-1.6118288040161133,-0.19175104796886444,13.75,0.0,2.105712890625,-0.8060932159423828,-1.342257335782051,27.75,,,,,,,,,,,,,,,,,,,,,,,,,,,,,,,,,,,
0.0,-7.097914834245373e-23,2.3166487216949463,-1.1587951183319092,2.0957391567689793e-23,-1.3549998998641968,-1.05708646774292,2.280622372978402e-22,-1.0240309238433838,-0.6553903818130493,0.0,1.8836259841918945,-1.2742280960083008,-0.19175104796886444,19.75,0.0,2.009868621826172,-1.2971162796020508,-0.19175104796886444,22.5,0.0,2.222299575805664,-1.5181303024291992,-1.9175104796886444,12.25,0.0,2.404332160949707,-1.6325712203979492,-1.342257335782051,12.25,0.0,2.117156982421875,-1.3350248336791992,-0.19175104796886444,18.75,0.0,2.610325813293457,-1.6318559646606445,-1.342257335782051,12.5,0.0,2.0592212677001953,-0.9992122650146484,0.0,26.75,,,,,,,,,,,,,,,,,,,,,,,,,,,,,,,,,,,,,,,,
0.0,-5.83743059693872e-23,2.161349296569824,-1.2833408117294312,5.692972494708476e-23,-1.4750609397888184,-1.1588362455368042,2.3672632817431877e-22,-1.0331288576126099,-0.6937713623046875,0.0,1.8750429153442383,-1.2356042861938477,-0.3835020959377289,22.25,0.0,1.9937753677368164,-1.2449026107788086,-0.3835020959377289,22.5,0.0,2.0946264266967773,-1.3071298599243164,-0.19175104796886444,17.5,0.0,3.1353235244750977,-1.188039779663086,0.0,17.75,,,,,,,,,,,,,,,,,,,,,,,,,,,,,,,,,,,,,,,,,,,,,,,,,,,,,,,
0.0,-4.3506663421348517e-23,1.9916588068008423,-1.4269944429397583,9.184501784564159e-23,-1.6013996601104736,-1.281476378440857,2.4413283592835574e-22,-1.0473885536193848,-0.7483019828796387,0.0,1.7423629760742188,-1.387953758239746,-0.19175104796886444,21.25,0.0,1.8128156661987305,-1.4494657516479492,-0.19175104796886444,21.0,0.0,2.0127296447753906,-1.3990402221679688,-0.19175104796886444,15.0,0.0,2.747654914855957,-1.3582706451416016,0.0,18.0,0.0,2.893209457397461,-1.4126300811767578,0.0,15.75,0.0,3.059864044189453,-1.4816522598266602,0.0,13.0,,,,,,,,,,,,,,,,,,,,,,,,,,,,,,,,,,,,,,,,,,,,,
0.0,-2.5261391423026667e-23,1.855716347694397,-1.5100414752960205,1.270616492991056e-22,-1.632119059562683,-1.292046308517456,2.5101377299289826e-22,-0.9556483626365662,-0.7147223949432373,0.0,1.7577409744262695,-1.2180805206298828,0.19175104796886444,17.5,0.0,1.7598867416381836,-1.2978315353393555,0.19175104796886444,23.75,0.0,1.8950700759887695,-1.2874603271484375,0.19175104796886444,20.5,0.0,2.1075010299682617,-1.2438297271728516,-0.3835020959377289,16.25,0.0,2.7948617935180664,-1.5560388565063477,0.0,14.25,0.0,2.046346664428711,-1.0181665420532227,0.0,27.5,0.0,2.190113067626953,-0.939488410949707,0.0,29.25,,,,,,,,,,,,,,,,,,,,,,,,,,,,,,,,,,,,,,,,
0.0,-4.583460930759564e-24,3.1686367988586426,-0.468410849571228,-7.338264185987205e-24,-0.3054687976837158,-0.8145191669464111,1.2046266532158536e-23,-0.06811384111642838,-0.8294119238853455,0.0,3.366708755493164,-1.0167360305786133,-0.3835020959377289,17.25,0.0,3.217935562133789,-0.8203983306884766,-0.3835020959377289,28.5,0.0,3.255486488342285,-0.9405612945556641,-0.3835020959377289,26.0,0.0,3.1560659408569336,-0.5242824554443359,-0.5752531439065933,24.75,0.0,2.9876232147216797,0.01609325408935547,-0.5752531439065933,22.0,0.0,2.8638839721679688,0.20384788513183594,-0.5752531439065933,18.75,,,,,,,,,,,,,,,,,,,,,,,,,,,,,,,,,,,,,,,,,,,,,
0.0,-3.7613412553439815e-24,3.130997896194458,-0.6080754399299622,-4.3533817591428035e-24,-0.3940351903438568,-0.9650353193283081,1.3117721868317776e-23,-0.2043215036392212,-0.8707541227340698,0.0,3.391385078430176,-1.6064643859863281,-0.5752531439065933,13.0,0.0,3.1900405883789062,-1.0246038436889648,-0.5752531439065933,21.0,0.0,3.270864486694336,-1.0564327239990234,-0.5752531439065933,20.75,0.0,3.38137149810791,-1.1429786682128906,-0.5752531439065933,15.25,0.0,3.101348876953125,-0.6469488143920898,-0.7670041918754578,16.25,0.0,2.9550790786743164,-0.1251697540283203,-0.7670041918754578,16.25,0.0,2.8470754623413086,0.05364418029785156,-0.7670041918754578,13.0,0.0,3.28981876373291,-1.16729736328125,0.0,21.0,0.0,3.2204389572143555,-0.66375732421875,0.0,20.25,0.0,3.077387809753418,-0.11336803436279297,0.0,21.75,0.0,2.9550790786743164,0.08726119995117188,0.0,22.75,,,,,,,,,,,,,,,,,,,,
0.0,-3.2846980857740574e-24,3.084414482116699,-0.7432363033294678,-2.0052558248639977e-24,-0.4703221917152405,-1.092577576637268,1.3750580796365902e-23,-0.2959090769290924,-0.892392098903656,0.0,3.1446218490600586,-0.9516477584838867,-0.5752531439065933,21.5,0.0,3.217935562133789,-1.055002212524414,-0.5752531439065933,18.0,0.0,3.371715545654297,-1.0814666748046875,-0.5752531439065933,12.25,0.0,3.0788183212280273,-0.903010368347168,-0.5752531439065933,20.5,0.0,2.9550790786743164,-0.5804300308227539,-0.9587552398443222,12.5,0.0,2.6671886444091797,0.24247169494628906,-0.7670041918754578,16.25,0.0,2.615690231323242,0.29540061950683594,-1.1505062878131866,17.0,0.0,2.9543638229370117,0.08761882781982422,0.0,22.5,0.0,2.8406381607055664,0.16558170318603516,0.0,20.25,,,,,,,,,,,,,,,,,,,,,,,,,,,,,,
0.0,-2.827971879123927e-24,3.0098559856414795,-0.8579549193382263,1.1463918959517391e-25,-0.5959890484809875,-1.1556555032730103,1.421298266001387e-23,-0.4341605305671692,-0.8515559434890747,0.0,3.003716468811035,-0.9970664978027344,-0.9587552398443222,24.5,0.0,3.028392791748047,-1.0868310928344727,-0.9587552398443222,21.75,0.0,3.153562545776367,-1.1261701583862305,-0.9587552398443222,15.75,0.0,2.923250198364258,-0.7946491241455078,-0.9587552398443222,19.0,0.0,2.5423765182495117,0.10335445404052734,-1.1505062878131866,12.75,0.0,2.624988555908203,0.1398324966430664,-1.1505062878131866,19.5,0.0,2.702951431274414,0.12731552124023438,-1.1505062878131866,19.5,0.0,2.9175281524658203,0.08189678192138672,0.0,22.75,0.0,2.761244773864746,0.10514259338378906,0.0,23.0,,,,,,,,,,,,,,,,,,,,,,,,,,,,,,
0.0,-1.893819558455441e-24,2.856323480606079,-0.8943869471549988,2.6365496528761647e-24,-0.9115839004516602,-1.0197917222976685,1.4903237529804067e-23,-0.8044818043708801,-0.613595724105835,0.0,2.98154354095459,-1.6211271286010742,-1.72575943171978,18.25,0.0,3.008723258972168,-1.827836036682129,-1.72575943171978,12.25,0.0,2.7991533279418945,-1.3897418975830078,-0.7670041918754578,20.25,0.0,2.9418468475341797,-1.4551877975463867,-1.72575943171978,19.0,0.0,2.739071846008301,-1.0296106338500977,-0.7670041918754578,21.25,0.0,2.639293670654297,-0.6276369094848633,-1.72575943171978,21.75,0.0,2.5491714477539062,-0.28717517852783203,-1.5340083837509155,23.25,0.0,2.4923086166381836,-0.20205974578857422,-1.5340083837509155,20.75,0.0,2.911090850830078,0.007510185241699219,0.0,22.75,,,,,,,,,,,,,,,,,,,,,,,,,,,,,,
0.0,-1.057845118961462e-24,2.6733572483062744,-1.0743144750595093,4.77857187060014e-24,-1.2119369506835938,-1.168912649154663,1.531439656677069e-23,-1.0766983032226562,-0.6523963212966919,0.0,2.9507875442504883,-1.6100406646728516,-1.1505062878131866,17.25,0.0,3.011941909790039,-1.880049705505371,-0.19175104796886444,12.25,0.0,2.1053552627563477,-0.9605884552001953,-1.5340083837509155,23.25,0.0,2.2498369216918945,-1.0410547256469727,-1.1505062878131866,23.25,0.0,2.70688533782959,-1.2842416763305664,-1.1505062878131866,14.25,0.0,2.821683883666992,-1.465916633605957,-1.1505062878131866,20.25,0.0,2.8742551803588867,-1.5195608139038086,-1.1505062878131866,21.5,0.0,2.17437744140625,-0.9627342224121094,-1.1505062878131866,26.0,0.0,2.5205612182617188,-0.9180307388305664,-1.1505062878131866,18.5,0.0,1.7938613891601562,-1.3893842697143555,0.0,23.0,0.0,2.9114484786987305,-0.1595020294189453,0.0,21.25,,,,,,,,,,,,,,,,,,,,
0.0,-4.115453569430514e-25,2.489119291305542,-1.1619293689727783,6.426305875241433e-24,-1.4702997207641602,-1.1264673471450806,1.538892972281778e-23,-1.276321530342102,-0.5205689668655396,0.0,2.5320053100585938,-1.4015436172485352,-2.3010125756263733,15.75,0.0,2.693653106689453,-1.4820098876953125,-1.5340083837509155,15.25,0.0,2.1142959594726562,-1.072525978088379,-0.19175104796886444,25.75,0.0,2.2509098052978516,-1.101851463317871,-2.3010125756263733,23.75,0.0,2.376437187194824,-1.2581348419189453,-2.3010125756263733,20.0,0.0,2.879619598388672,-1.4834403991699219,-1.1505062878131866,13.5,0.0,2.077460289001465,-0.9176731109619141,-0.9587552398443222,24.5,0.0,2.2770166397094727,-1.0306835174560547,0.0,24.0,0.0,2.2881031036376953,-1.0356903076171875,0.0,23.75,0.0,2.905726432800293,-0.2435445785522461,0.0,20.0,,,,,,,,,,,,,,,,,,,,,,,,,
0.0,2.6236091292831126e-25,2.3160579204559326,-1.2777135372161865,7.911073444208097e-24,-1.600949764251709,-1.2050491571426392,1.5355884339498073e-23,-1.2488113641738892,-0.5637686848640442,0.0,2.0012855529785156,-1.2649297714233398,-0.5752531439065933,21.75,0.0,1.9108057022094727,-0.9362697601318359,-0.5752531439065933,14.0,0.0,1.9562244415283203,-0.983119010925293,-0.5752531439065933,23.5,0.0,2.2519826889038086,-1.189112663269043,-0.19175104796886444,22.5,0.0,2.3453235626220703,-1.239180564880371,-0.19175104796886444,17.25,0.0,2.239108085632324,-1.1301040649414062,0.0,26.25,,,,,,,,,,,,,,,,,,,,,,,,,,,,,,,,,,,,,,,,,,,,,
0.0,8.92903770010611e-25,2.124772787094116,-1.3994539976119995,9.123453259058734e-24,-1.7696360349655151,-1.255021333694458,1.515224305225889e-23,-1.292710304260254,-0.5544325709342957,0.0,1.8110275268554688,-1.3926029205322266,-0.7670041918754578,24.0,0.0,1.9108057022094727,-1.3654232025146484,-0.7670041918754578,25.25,0.0,2.0599365234375,-1.3221502304077148,-0.9587552398443222,21.0,0.0,2.2727251052856445,-1.3257265090942383,-0.9587552398443222,13.5,,,,,,,,,,,,,,,,,,,,,,,,,,,,,,,,,,,,,,,,,,,,,,,,,,,,,,,
0.0,1.514588581943894e-24,1.9760839939117432,-1.5030176639556885,1.0150901200759315e-23,-1.809261679649353,-1.3002158403396606,1.484774274284358e-23,-1.1783270835876465,-0.576492190361023,0.0,1.8564462661743164,-1.2488365173339844,-0.19175104796886444,24.75,0.0,1.89971923828125,-1.2892484664916992,0.19175104796886444,23.75,0.0,2.0706653594970703,-1.3132095336914062,-0.3835020959377289,17.0,0.0,2.410411834716797,-1.237034797668457,-0.3835020959377289,12.5,,,,,,,,,,,,,,,,,,,,,,,,,,,,,,,,,,,,,,,,,,,,,,,,,,,,,,,
0.0,1.9713730656933975e-24,1.889540433883667,-1.5439990758895874,1.0787511951272671e-23,-1.7167943716049194,-1.232253074645996,1.4316080469439015e-23,-0.9498231410980225,-0.5046837329864502,0.0,1.8002986907958984,-1.2195110321044922,-0.19175104796886444,23.0,0.0,1.8035173416137695,-1.1508464813232422,-0.19175104796886444,13.0,0.0,1.9848346710205078,-1.238107681274414,-0.19175104796886444,18.25,0.0,2.318859100341797,-1.2663602828979492,-0.19175104796886444,15.75,0.0,2.2612810134887695,-1.1959075927734375,-0.19175104796886444,19.5,0.0,2.441883087158203,-1.0660886764526367,0.0,19.0,0.0,2.735137939453125,-1.0575056076049805,0.0,12.25,,,,,,,,,,,,,,,,,,,,,,,,,,,,,,,,,,,,,,,,
0.0,-5.7220809690730655e-25,3.262808322906494,0.09932263940572739,-1.372040035863873e-24,-0.4182632863521576,0.4027915298938751,-8.0346040329774365e-25,-0.697795033454895,-0.1085243821144104,0.0,2.718329429626465,-1.9551515579223633,-0.19175104796886444,13.0,0.0,3.246903419494629,-1.4308691024780273,-0.19175104796886444,18.75,0.0,3.299832344055176,-1.4019012451171875,-0.19175104796886444,17.5,0.0,3.0144453048706055,0.3701448440551758,-0.3835020959377289,18.5,0.0,3.073453903198242,0.3383159637451172,-0.19175104796886444,20.75,0.0,3.165006637573242,0.6315708160400391,-0.19175104796886444,17.25,0.0,3.2497644424438477,-0.15628337860107422,0.0,26.5,0.0,3.1489133834838867,0.0514984130859375,0.0,27.5,0.0,3.082752227783203,0.19669532775878906,0.0,22.75,,,,,,,,,,,,,,,,,,,,,,,,,,,,,,
0.0,-5.488993772217084e-25,3.2068898677825928,0.04603303223848343,-1.2660773794538053e-24,-0.48927393555641174,0.2481398731470108,-6.945507597609965e-25,-0.6851889491081238,-0.2222823202610016,0.0,3.2404661178588867,-1.190185546875,-0.3835020959377289,22.5,0.0,3.330230712890625,-1.1576414108276367,-0.3835020959377289,17.25,0.0,3.2014846801757812,-0.8336305618286133,-0.3835020959377289,21.0,0.0,3.09598445892334,-0.17452239990234375,-0.3835020959377289,22.0,0.0,3.003358840942383,0.0629425048828125,-0.3835020959377289,20.75,0.0,2.8835535049438477,0.3218650817871094,-0.3835020959377289,15.25,0.0,3.393888473510742,-0.6791353225708008,0.0,25.0,0.0,3.2497644424438477,-0.2524852752685547,0.0,25.75,0.0,3.143906593322754,-0.012159347534179688,0.0,27.0,,,,,,,,,,,,,,,,,,,,,,,,,,,,,,
0.0,-4.937553868450112e-25,3.158823251724243,-0.0021516308188438416,-1.1261121556231568e-24,-0.5400342345237732,0.11550711840391159,-5.7225597090349215e-25,-0.658729076385498,-0.309356153011322,0.0,3.3652782440185547,-1.3850927352905273,-0.19175104796886444,16.0,0.0,3.46219539642334,-1.466989517211914,-0.3835020959377289,12.25,0.0,3.4006834030151367,-0.9183883666992188,-0.19175104796886444,15.0,0.0,3.0548572540283203,-0.12159347534179688,-0.5752531439065933,21.5,0.0,3.024458885192871,-0.04398822784423828,-0.5752531439065933,19.75,0.0,2.900362014770508,0.20742416381835938,-0.5752531439065933,12.75,0.0,3.193974494934082,0.1266002655029297,-0.3835020959377289,14.25,0.0,3.390669822692871,-0.6988048553466797,0.0,25.25,0.0,3.247976303100586,-0.2803802490234375,0.0,26.0,0.0,3.144979476928711,-0.034332275390625,0.0,27.25,0.0,3.0759572982788086,0.1004934310913086,0.0,22.25,,,,,,,,,,,,,,,,,,,,
0.0,-4.515883062706193e-25,3.124331474304199,-0.130331888794899,-1.0044384468170942e-24,-0.5615034699440002,-0.12951448559761047,-4.672386163769121e-25,-0.6097835302352905,-0.47992703318595886,0.0,3.4464597702026367,-1.283884048461914,-0.3835020959377289,14.0,0.0,3.347039222717285,-1.0017156600952148,-0.3835020959377289,22.5,0.0,3.366708755493164,-1.21307373046875,-0.3835020959377289,20.25,0.0,3.2504796981811523,-0.6133317947387695,-0.3835020959377289,21.0,0.0,3.0891895294189453,-0.3204345703125,-0.5752531439065933,21.25,0.0,2.9790401458740234,-0.12409687042236328,-0.5752531439065933,21.25,0.0,2.8896331787109375,0.02396106719970703,-0.5752531439065933,16.5,0.0,3.2726526260375977,-0.3644227981567383,0.0,25.0,,,,,,,,,,,,,,,,,,,,,,,,,,,,,,,,,,,
0.0,-3.7874114319321123e-25,3.0874686241149902,-0.2620762884616852,-8.49811454202008e-25,-0.5809414982795715,-0.36157965660095215,-3.4804765005480634e-25,-0.5650352239608765,-0.6290254592895508,0.0,3.3066272735595703,-1.1669397354125977,-0.19175104796886444,17.25,0.0,3.246903419494629,-0.8372068405151367,-0.19175104796886444,24.75,0.0,3.2958984375,-0.8804798126220703,-0.19175104796886444,23.25,0.0,2.92360782623291,-0.10800361633300781,-0.7670041918754578,23.25,0.0,3.1006336212158203,-0.2925395965576172,-0.7670041918754578,20.75,0.0,2.8460025787353516,-0.0017881393432617188,-0.7670041918754578,21.0,0.0,2.7337074279785156,0.14662742614746094,-0.7670041918754578,13.75,0.0,3.260493278503418,-0.5003213882446289,0.0,26.5,,,,,,,,,,,,,,,,,,,,,,,,,,,,,,,,,,,
0.0,-3.2993010351172496e-25,3.030714273452759,-0.4267888367176056,-7.251120693939703e-25,-0.6512094736099243,-0.6250755786895752,-2.5136083925068317e-25,-0.5971642732620239,-0.7923216819763184,0.0,3.242969512939453,-1.2248754501342773,-0.3835020959377289,18.5,0.0,3.336310386657715,-1.2874603271484375,-0.3835020959377289,16.5,0.0,3.416776657104492,-1.53350830078125,-0.3835020959377289,12.25,0.0,3.1403303146362305,-1.0453462600708008,0.19175104796886444,18.5,0.0,3.0133724212646484,-0.5975961685180664,-0.19175104796886444,19.75,0.0,2.8259754180908203,-0.2943277359008789,-1.342257335782051,20.25,0.0,2.8989315032958984,-0.3361701965332031,-1.342257335782051,21.75,0.0,2.688288688659668,-0.0826120376586914,-1.1505062878131866,12.25,0.0,3.334164619445801,-1.031041145324707,0.0,24.0,0.0,3.3763647079467773,-1.2137889862060547,0.0,21.75,,,,,,,,,,,,,,,,,,,,,,,,,
0.0,-2.76340588200669e-25,2.8976800441741943,-0.5268311500549316,-5.943960917656185e-25,-0.8889483213424683,-0.736226499080658,-1.5380753869788457e-25,-0.8412914276123047,-0.8004762530326843,0.0,3.2640695571899414,-1.566767692565918,-0.3835020959377289,12.5,0.0,3.028750419616699,-1.178741455078125,-0.3835020959377289,16.25,0.0,3.1653642654418945,-1.2788772583007812,-0.3835020959377289,13.75,0.0,2.937197685241699,-0.9058713912963867,-1.342257335782051,19.5,0.0,2.7447938919067383,-0.5611181259155273,-1.342257335782051,22.25,0.0,2.61533260345459,-0.3719329833984375,-1.5340083837509155,29.75,0.0,2.633213996887207,-0.40841102600097656,-1.5340083837509155,29.5,0.0,2.5681257247924805,-0.2353191375732422,-1.5340083837509155,21.25,0.0,3.327012062072754,-1.0617971420288086,0.0,21.5,0.0,3.357410430908203,-1.2406110763549805,0.0,21.75,,,,,,,,,,,,,,,,,,,,,,,,,
0.0,-2.429578189325591e-25,2.754455089569092,-0.6548499464988708,-4.925403931395511e-25,-1.0920666456222534,-0.8888156414031982,-7.937872183146006e-26,-0.9954274892807007,-0.8505810499191284,0.0,2.4358034133911133,-0.9949207305908203,-0.9587552398443222,21.0,0.0,3.08382511138916,-1.280665397644043,-0.3835020959377289,16.5,0.0,3.1360387802124023,-1.330733299255371,-0.7670041918754578,17.25,0.0,2.7451515197753906,-0.8307695388793945,-1.72575943171978,17.0,0.0,2.4172067642211914,-0.6498098373413086,-1.342257335782051,26.5,0.0,2.377152442932129,-0.39768218994140625,-1.342257335782051,16.5,0.0,2.4254322052001953,-0.4906654357910156,-1.342257335782051,26.0,0.0,3.3109188079833984,-1.0864734649658203,0.0,22.25,0.0,3.360629081726074,-1.2195110321044922,0.0,21.75,,,,,,,,,,,,,,,,,,,,,,,,,,,,,,
0.0,-2.0278182328294502e-25,2.598132371902466,-0.8351861238479614,-3.8410946491275666e-25,-1.3123856782913208,-1.1072468757629395,-3.946239700513179e-27,-1.1618515253067017,-0.9491297006607056,0.0,2.8095245361328125,-1.363992691040039,-2.4927636235952377,12.25,0.0,2.9314756393432617,-1.507401466369629,-2.4927636235952377,14.5,0.0,3.0670166015625,-1.5159845352172852,-1.1505062878131866,13.75,0.0,2.352476119995117,-0.8997917175292969,-0.5752531439065933,21.75,0.0,2.476215362548828,-1.038193702697754,-0.5752531439065933,20.0,0.0,2.639293670654297,-1.1268854141235352,-1.9175104796886444,13.75,0.0,2.2115707397460938,-0.7048845291137695,-0.9587552398443222,20.25,0.0,2.2602081298828125,-0.7871389389038086,-0.5752531439065933,23.75,0.0,3.056645393371582,-0.5235671997070312,0.0,17.0,,,,,,,,,,,,,,,,,,,,,,,,,,,,,,
0.0,-1.683864770872741e-25,2.441232919692993,-0.9542091488838196,-2.8609640636363394e-25,-1.53706693649292,-1.1573779582977295,6.140077285372368e-26,-1.3425467014312744,-0.8703297972679138,0.0,2.1218061447143555,-1.2770891189575195,-0.7670041918754578,21.75,0.0,2.2945404052734375,-1.4262199401855469,-1.1505062878131866,15.75,0.0,2.6607513427734375,-1.3654232025146484,-2.3010125756263733,13.75,0.0,2.8699636459350586,-1.3353824615478516,-2.3010125756263733,19.0,0.0,2.9654502868652344,-1.3210773468017578,-2.3010125756263733,19.75,0.0,3.073453903198242,-1.329660415649414,-2.3010125756263733,15.0,0.0,2.1207332611083984,-0.6898641586303711,-0.7670041918754578,28.25,0.0,2.1915435791015625,-0.652313232421875,-0.7670041918754578,26.5,0.0,3.0362606048583984,-0.6680488586425781,0.0,16.75,,,,,,,,,,,,,,,,,,,,,,,,,,,,,,
0.0,-1.4338767221604653e-25,2.2655155658721924,-1.086098074913025,-2.0733653358636813e-25,-1.6946052312850952,-1.2687608003616333,1.093637685731699e-25,-1.3637850284576416,-0.8930103778839111,0.0,2.129673957824707,-1.2069940567016602,-0.19175104796886444,21.75,0.0,2.3238658905029297,-1.3003349304199219,-0.19175104796886444,12.5,0.0,2.5463104248046875,-1.415848731994629,-2.4927636235952377,12.5,0.0,2.071380615234375,-1.0002851486206055,-0.7670041918754578,26.5,0.0,2.7437210083007812,-1.416921615600586,-2.684514671564102,12.5,0.0,1.9755363464355469,-0.8518695831298828,-0.7670041918754578,14.75,0.0,2.0259618759155273,-0.880122184753418,-0.7670041918754578,28.5,0.0,3.369569778442383,-1.5410184860229492,0.0,12.25,0.0,3.3288002014160156,-1.2667179107666016,0.0,17.5,0.0,3.2644271850585938,-1.0918378829956055,0.0,21.0,,,,,,,,,,,,,,,,,,,,,,,,,
0.0,0.009646423161029816,3.2547028064727783,0.04465934634208679,0.03228389099240303,-0.3373293876647949,0.5650674700737,0.02980063296854496,-0.6879445314407349,-0.009438753128051758,0.0,3.5712718963623047,-0.5815029144287109,-0.19175104796886444,18.0,0.0,3.6592483520507812,-0.7914304733276367,-0.19175104796886444,14.0,0.0,3.4836530685424805,-0.5131959915161133,-0.19175104796886444,18.75,0.0,3.1120777130126953,-0.20456314086914062,-0.3835020959377289,17.25,0.0,3.300189971923828,-0.16951560974121094,-0.19175104796886444,15.5,0.0,3.0333995819091797,-0.03790855407714844,-0.3835020959377289,14.75,0.0,3.486514091491699,-0.8883476257324219,0.0,25.25,0.0,3.5794973373413086,-0.9598731994628906,0.0,17.25,0.0,3.415703773498535,-0.7549524307250977,0.0,26.75,,,,,,,,,,,,,,,,,,,,,,,,,,,,,,
0.0,0.009831389412283897,3.2158937454223633,0.010718666017055511,0.03179461881518364,-0.38745415210723877,0.43362730741500854,0.02807832509279251,-0.6554751396179199,-0.10758670419454575,0.0,3.482222557067871,-1.1107921600341797,-0.19175104796886444,18.75,0.0,3.5179853439331055,-1.2720823287963867,-0.19175104796886444,16.75,0.0,3.405332565307617,-0.7874965667724609,-0.19175104796886444,17.5,0.0,3.2018423080444336,-0.4284381866455078,-0.19175104796886444,19.25,0.0,3.046274185180664,-0.2582073211669922,-0.5752531439065933,23.25,0.0,2.95257568359375,0.005364418029785156,-0.3835020959377289,24.0,0.0,2.8706789016723633,0.17559528350830078,-0.3835020959377289,21.0,0.0,3.540158271789551,-1.1218786239624023,0.0,17.0,0.0,3.473639488220215,-0.9412765502929688,0.0,23.0,0.0,3.407120704650879,-0.7628202438354492,0.0,25.75,,,,,,,,,,,,,,,,,,,,,,,,,
0.0,0.010602006688714027,3.1799113750457764,-0.00844598188996315,0.03192265331745148,-0.41501766443252563,0.33350449800491333,0.026782123371958733,-0.5940189957618713,-0.17473937571048737,0.0,2.973318099975586,-2.0220279693603516,-0.3835020959377289,15.25,0.0,3.136754035949707,-1.4308691024780273,-0.19175104796886444,20.75,0.0,3.755807876586914,-1.456618309020996,-0.19175104796886444,14.75,0.0,3.630995750427246,-1.3332366943359375,-0.19175104796886444,15.0,0.0,3.1925439834594727,-0.9466409683227539,-0.19175104796886444,18.75,0.0,3.111720085144043,-0.1652240753173828,-0.19175104796886444,18.0,0.0,2.8270483016967773,0.13518333435058594,-0.3835020959377289,16.75,0.0,2.92360782623291,0.15020370483398438,-0.3835020959377289,17.0,0.0,3.48508358001709,-0.9348392486572266,0.0,20.75,0.0,3.3992528915405273,-0.7395744323730469,0.0,24.5,,,,,,,,,,,,,,,,,,,,,,,,,
0.0,0.0100486371666193,3.1273155212402344,-0.05620286986231804,0.03049839287996292,-0.4706316292285919,0.19434790313243866,0.02477666735649109,-0.5812909603118896,-0.27052706480026245,0.0,3.137826919555664,-0.8432865142822266,-0.3835020959377289,20.0,0.0,3.300189971923828,-0.7932186126708984,-0.19175104796886444,12.75,0.0,3.06093692779541,-0.3508329391479492,-0.3835020959377289,19.5,0.0,2.9042959213256836,0.07510185241699219,-0.5752531439065933,22.0,0.0,2.7326345443725586,0.21457672119140625,-0.5752531439065933,13.5,0.0,2.825617790222168,0.1569986343383789,-0.5752531439065933,20.75,0.0,3.4836530685424805,-0.9627342224121094,0.0,19.5,0.0,3.270864486694336,-0.5568265914916992,0.0,21.5,0.0,3.413558006286621,-0.7742643356323242,0.0,22.5,0.0,3.0777454376220703,-0.022172927856445312,0.0,23.75,,,,,,,,,,,,,,,,,,,,,,,,,
0.0,0.008869998157024384,3.108661651611328,-0.17669777572155,0.028485247865319252,-0.4781474471092224,-0.042296797037124634,0.022610649466514587,-0.532164990901947,-0.43611419200897217,0.0,3.5265684127807617,-1.4698505401611328,-0.19175104796886444,15.0,0.0,3.8580894470214844,-1.157999038696289,-0.19175104796886444,13.0,0.0,3.1560659408569336,-0.7524490356445312,-0.3835020959377289,20.0,0.0,3.0612945556640625,-0.49996376037597656,-0.3835020959377289,22.5,0.0,3.3828020095825195,-0.5586147308349609,-0.3835020959377289,16.0,0.0,3.5344362258911133,-0.7456541061401367,-0.5752531439065933,15.0,0.0,2.953648567199707,-0.1512765884399414,-0.5752531439065933,21.5,0.0,2.8156042098999023,0.007152557373046875,-0.5752531439065933,19.25,0.0,2.6814937591552734,0.20778179168701172,-0.5752531439065933,15.75,0.0,3.4089088439941406,-0.7989406585693359,0.0,22.75,0.0,3.4890174865722656,-0.9008646011352539,0.0,20.25,0.0,3.276228904724121,-0.6104707717895508,0.0,22.25,0.0,3.0984878540039062,-0.15163421630859375,0.0,22.75,,,,,,,,,,
0.0,0.008652450516819954,3.053765296936035,-0.3037051856517792,0.027383171021938324,-0.5648775100708008,-0.2753499746322632,0.020927630364894867,-0.5987815856933594,-0.5891177654266357,0.0,3.2014846801757812,-0.8543729782104492,-0.7670041918754578,21.5,0.0,3.2747983932495117,-0.9452104568481445,-0.7670041918754578,17.75,0.0,3.391742706298828,-0.972747802734375,-0.3835020959377289,14.75,0.0,3.0895471572875977,-0.6566047668457031,-0.7670041918754578,19.0,0.0,2.753734588623047,-0.3129243850708008,-0.5752531439065933,20.25,0.0,2.881765365600586,-0.38623809814453125,-0.5752531439065933,18.75,0.0,2.695798873901367,-0.1659393310546875,-0.7670041918754578,16.25,0.0,3.407120704650879,-0.7975101470947266,0.0,23.0,0.0,3.48508358001709,-0.9140968322753906,0.0,20.75,0.0,3.2622814178466797,-0.6945133209228516,0.0,22.25,,,,,,,,,,,,,,,,,,,,,,,,,
0.0,0.008166620507836342,2.9696145057678223,-0.35042232275009155,0.025873765349388123,-0.7029167413711548,-0.35132843255996704,0.019087154418230057,-0.7240945100784302,-0.5959298610687256,0.0,3.475785255432129,-1.6411542892456055,-0.7670041918754578,13.0,0.0,3.3817291259765625,-1.3375282287597656,-0.3835020959377289,13.25,0.0,3.751516342163086,-1.4677047729492188,-0.7670041918754578,14.25,0.0,3.3202171325683594,-0.9773969650268555,-0.3835020959377289,13.75,0.0,2.997279167175293,-0.5035400390625,-0.9587552398443222,20.0,0.0,3.166079521179199,-0.6480216979980469,-0.9587552398443222,12.5,0.0,2.8617382049560547,-0.3350973129272461,-0.9587552398443222,22.0,0.0,2.6679039001464844,-0.15234947204589844,-0.9587552398443222,22.5,0.0,2.729058265686035,-0.22673606872558594,-0.9587552398443222,24.0,0.0,2.583146095275879,-0.015020370483398438,-0.7670041918754578,12.75,0.0,3.4089088439941406,-0.789642333984375,0.0,21.5,0.0,3.480076789855957,-0.9251832962036133,0.0,21.5,0.0,3.2640695571899414,-0.6437301635742188,0.0,21.75,,,,,,,,,,
0.0,0.008132719434797764,2.87214732170105,-0.4047095477581024,0.024810127913951874,-0.8415029644966125,-0.4305541217327118,0.017543941736221313,-0.8277526497840881,-0.6059136390686035,0.0,3.018021583557129,-2.239823341369629,-0.9587552398443222,12.5,0.0,3.1310319900512695,-1.851797103881836,-0.9587552398443222,15.5,0.0,2.973318099975586,-0.9241104125976562,-1.1505062878131866,13.75,0.0,3.167867660522461,-0.9473562240600586,-1.1505062878131866,13.25,0.0,3.2830238342285156,-1.131892204284668,-0.3835020959377289,13.75,0.0,2.7887821197509766,-0.5110502243041992,-0.9587552398443222,16.0,0.0,2.54058837890625,-0.1634359359741211,-0.9587552398443222,19.5,0.0,2.5742053985595703,-0.2338886260986328,-0.9587552398443222,24.5,0.0,2.6339292526245117,-0.23353099822998047,-0.9587552398443222,21.5,0.0,3.530144691467285,-1.2760162353515625,0.0,18.25,0.0,3.4950971603393555,-0.9223222732543945,0.0,21.5,0.0,3.254413604736328,-0.6312131881713867,0.0,16.75,0.0,3.430008888244629,-0.7309913635253906,0.0,20.5,0.0,2.773761749267578,0.020384788513183594,0.0,23.75,,,,,
0.0,0.007630020845681429,2.797600507736206,-0.5563753247261047,0.023344852030277252,-0.8704308271408081,-0.6910578012466431,0.01594739593565464,-0.7308302521705627,-0.7883259057998657,0.0,3.2279491424560547,-1.5381574630737305,-0.19175104796886444,13.0,0.0,3.134608268737793,-1.2960433959960938,-0.19175104796886444,17.0,0.0,3.0083656311035156,-0.937342643737793,-0.19175104796886444,15.25,0.0,3.1174421310424805,-1.073598861694336,-0.19175104796886444,19.0,0.0,2.4379491806030273,-0.400543212890625,-0.7670041918754578,25.25,0.0,2.5970935821533203,-0.5893707275390625,-0.7670041918754578,16.5,0.0,2.8803348541259766,-0.6515979766845703,-0.9587552398443222,19.25,0.0,2.4372339248657227,-0.35762786865234375,-0.7670041918754578,25.75,0.0,2.39717960357666,-0.22530555725097656,-0.7670041918754578,16.0,0.0,3.4672021865844727,-1.486659049987793,0.0,16.25,0.0,3.437519073486328,-1.1483430862426758,0.0,18.75,0.0,3.1785964965820312,-0.7960796356201172,0.0,15.0,0.0,3.3617019653320312,-0.8654594421386719,0.0,17.5,0.0,2.9075145721435547,-0.1748800277709961,0.0,25.25,0.0,2.75266170501709,-0.039696693420410156,0.0,24.25
0.0,0.007537425961345434,2.685091257095337,-0.7256526350975037,0.022152498364448547,-0.9846253395080566,-0.9447951316833496,0.01447047758847475,-0.7785288095474243,-0.9395918846130371,0.0,3.026604652404785,-1.5124082565307617,-0.3835020959377289,13.5,0.0,2.957940101623535,-1.3214349746704102,-0.3835020959377289,15.75,0.0,2.3403167724609375,-0.765681266784668,-0.7670041918754578,27.75,0.0,2.390742301940918,-0.8608102798461914,-0.7670041918754578,28.5,0.0,2.5194883346557617,-0.8579492568969727,-0.7670041918754578,25.75,0.0,2.706170082092285,-0.9022951126098633,-0.7670041918754578,20.0,0.0,2.888917922973633,-1.0635852813720703,-0.9587552398443222,15.75,0.0,2.3145675659179688,-0.5764961242675781,-0.7670041918754578,20.75,0.0,3.177165985107422,-0.8271932601928711,0.0,16.0,0.0,3.3305883407592773,-0.8561611175537109,0.0,17.25,0.0,3.028750419616699,-0.6186962127685547,0.0,16.5,0.0,2.8728246688842773,-0.21064281463623047,0.0,23.75,,,,,,,,,,,,,,,
0.0,0.007408740930259228,2.5653655529022217,-0.9541840553283691,0.02089821733534336,-1.0976040363311768,-1.2849199771881104,0.013029521331191063,-0.810041606426239,-1.1609445810317993,0.0,1.9930601119995117,-1.1390447616577148,-0.19175104796886444,22.75,0.0,2.0989179611206055,-1.065373420715332,-0.19175104796886444,23.75,0.0,2.675771713256836,-1.225590705871582,-0.7670041918754578,12.25,0.0,2.8867721557617188,-1.3579130172729492,-0.7670041918754578,15.5,0.0,2.956867218017578,-1.465916633605957,-0.5752531439065933,19.25,0.0,3.0183792114257812,-1.5288591384887695,-0.5752531439065933,17.0,0.0,2.3038387298583984,-0.9713172912597656,-0.19175104796886444,19.75,0.0,2.537369728088379,-0.9065866470336914,-1.342257335782051,18.0,0.0,3.381013870239258,-1.1887550354003906,0.0,16.0,0.0,3.028392791748047,-0.7131099700927734,0.0,16.75,0.0,3.163576126098633,-0.8597373962402344,0.0,17.0,0.0,3.3102035522460938,-0.8947849273681641,0.0,17.75,0.0,2.875685691833496,-0.26285648345947266,0.0,23.25,,,,,,,,,,
0.0,0.007246214896440506,2.4342801570892334,-1.180221676826477,0.019544491544365883,-1.2215912342071533,-1.5739452838897705,0.011582923121750355,-0.857854962348938,-1.315195918083191,0.0,1.8371343612670898,-1.2677907943725586,-0.19175104796886444,23.75,0.0,1.9576549530029297,-1.291036605834961,-0.3835020959377289,23.0,0.0,2.1865367889404297,-1.3060569763183594,-0.3835020959377289,20.75,0.0,2.369999885559082,-1.3511180877685547,-0.5752531439065933,20.0,0.0,2.5638341903686523,-1.427292823791504,-0.7670041918754578,14.75,0.0,2.848505973815918,-1.3589859008789062,-0.19175104796886444,18.0,0.0,2.959728240966797,-1.381516456604004,-0.19175104796886444,19.25,0.0,3.0122995376586914,-1.4995336532592773,-0.5752531439065933,16.25,0.0,1.7369985580444336,-1.4383792877197266,0.0,27.75,0.0,3.1381845474243164,-0.9720325469970703,0.0,15.75,0.0,3.0105113983154297,-0.7445812225341797,0.0,14.0,0.0,2.656102180480957,-0.4341602325439453,0.0,24.0,0.0,2.86102294921875,-0.4788637161254883,0.0,20.75,,,,,,,,,,
0.0,0.007191511802375317,2.3022568225860596,-1.3052449226379395,0.018202325329184532,-1.344934105873108,-1.5833605527877808,0.01016177237033844,-0.9395242929458618,-1.1650798320770264,0.0,2.2487640380859375,-1.4437437057495117,-1.72575943171978,21.25,0.0,2.354264259338379,-1.6207695007324219,-1.72575943171978,14.75,0.0,2.0263195037841797,-1.1036396026611328,-0.3835020959377289,21.25,0.0,2.071380615234375,-1.2427568435668945,-0.3835020959377289,24.75,0.0,2.1436214447021484,-1.3335943222045898,0.19175104796886444,24.5,0.0,2.645730972290039,-1.57928466796875,-1.72575943171978,12.5,0.0,2.9239654541015625,-1.4787912368774414,-0.7670041918754578,12.5,0.0,1.804947853088379,-1.3632774353027344,0.0,28.25,0.0,1.8095970153808594,-1.3668537139892578,0.0,28.0,0.0,2.1915435791015625,-0.9752511978149414,0.0,27.75,0.0,3.0645132064819336,-1.1701583862304688,0.0,16.0,0.0,2.604961395263672,-0.6862878799438477,0.0,24.25,,,,,,,,,,,,,,,
0.0,0.007830321788787842,2.1421899795532227,-1.4821724891662598,0.017711665481328964,-1.4685531854629517,-1.7284749746322632,0.00930960662662983,-0.9679417014122009,-1.192214012145996,0.0,1.6733407974243164,-1.4437437057495117,0.19175104796886444,24.5,0.0,1.8886327743530273,-1.3822317123413086,-0.3835020959377289,21.75,0.0,2.0935535430908203,-1.4244318008422852,-0.3835020959377289,21.25,0.0,2.1632909774780273,-1.553177833557129,-0.19175104796886444,17.75,0.0,1.852869987487793,-1.3121366500854492,0.0,27.25,0.0,3.2204389572143555,-1.567840576171875,0.0,13.25,0.0,2.230525016784668,-0.8872747421264648,0.0,28.0,0.0,3.059864044189453,-1.2023448944091797,0.0,16.75,0.0,3.127455711364746,-1.376509666442871,0.0,16.5,,,,,,,,,,,,,,,,,,,,,,,,,,,,,,
0.0,0.007017451338469982,2.8498342037200928,-0.7508784532546997,0.027525974437594414,-0.8066976070404053,-0.9448221325874329,0.024139756336808205,-0.7661938667297363,-0.82457435131073,0.0,2.9790401458740234,-1.3643503189086914,-0.7670041918754578,17.75,0.0,2.565622329711914,-0.9791851043701172,-1.1505062878131866,17.25,0.0,2.753019332885742,-1.0896921157836914,-1.1505062878131866,17.75,0.0,2.918243408203125,-1.1633634567260742,-0.5752531439065933,18.5,0.0,3.106355667114258,-1.398324966430664,-0.5752531439065933,15.75,0.0,3.26693058013916,-1.3908147811889648,-0.5752531439065933,12.5,0.0,2.3403167724609375,-0.8389949798583984,-0.7670041918754578,15.75,0.0,2.4733543395996094,-0.7295608520507812,-0.7670041918754578,17.5,0.0,3.5544633865356445,-1.1758804321289062,0.0,15.75,,,,,,,,,,,,,,,,,,,,,,,,,,,,,,
0.0,0.007506128400564194,2.7868831157684326,-0.7510800957679749,0.02701772376894951,-0.8618514537811279,-0.8349757194519043,0.02260901965200901,-0.7621878385543823,-0.6486235857009888,0.0,3.197908401489258,-1.4119148254394531,-0.19175104796886444,15.0,0.0,3.3048391342163086,-1.4154911041259766,-0.9587552398443222,14.25,0.0,2.8874874114990234,-0.46241283416748047,-1.1505062878131866,13.75,0.0,2.452254295349121,-0.2295970916748047,-0.7670041918754578,16.0,0.0,2.531290054321289,-0.03218650817871094,-0.7670041918754578,16.5,0.0,2.6979446411132812,0.016450881958007812,-0.5752531439065933,13.25,,,,,,,,,,,,,,,,,,,,,,,,,,,,,,,,,,,,,,,,,,,,,
0.0,0.0075493245385587215,2.6616153717041016,-0.845124363899231,0.025740306824445724,-1.010505199432373,-0.8988721370697021,0.0206940695643425,-0.8633690476417542,-0.6333199739456177,0.0,2.858877182006836,-1.336812973022461,-1.1505062878131866,17.5,0.0,2.9196739196777344,-1.349329948425293,-1.342257335782051,16.75,0.0,2.762317657470703,-1.1841058731079102,-1.342257335782051,13.5,0.0,2.2541284561157227,-0.7066726684570312,-0.3835020959377289,24.5,0.0,2.281665802001953,-0.6837844848632812,-0.3835020959377289,28.75,0.0,2.331376075744629,-0.6694793701171875,-0.3835020959377289,24.75,0.0,2.5184154510498047,-0.6912946701049805,-1.72575943171978,15.25,0.0,3.439664840698242,-1.4519691467285156,0.0,14.25,,,,,,,,,,,,,,,,,,,,,,,,,,,,,,,,,,,
0.0,0.0068343691527843475,2.572634696960449,-0.9013150930404663,0.02360236644744873,-1.094692349433899,-0.8759772181510925,0.018464528024196625,-0.88681560754776,-0.5447309017181396,0.0,2.6471614837646484,-1.3750791549682617,-2.109261527657509,13.75,0.0,2.8127431869506836,-1.4344453811645508,-0.9587552398443222,16.0,0.0,3.2215118408203125,-1.5048980712890625,-0.7670041918754578,12.25,0.0,3.005862236022949,-1.3257265090942383,-0.9587552398443222,16.75,0.0,3.1124353408813477,-1.3926029205322266,-0.7670041918754578,15.5,0.0,2.2777318954467773,-0.5550384521484375,-0.3835020959377289,24.25,0.0,2.528071403503418,-0.7091760635375977,-0.19175104796886444,15.5,0.0,2.321004867553711,-0.5038976669311523,-0.9587552398443222,27.75,0.0,2.3882389068603516,-0.4495382308959961,-0.9587552398443222,23.75,0.0,3.3098459243774414,-1.3926029205322266,0.0,18.25,0.0,3.408193588256836,-1.5238523483276367,0.0,14.0,,,,,,,,,,,,,,,,,,,,
0.0,0.0074981944635510445,2.4129137992858887,-1.0689120292663574,0.02313811518251896,-1.269328236579895,-1.0716015100479126,0.01719963178038597,-0.981817901134491,-0.6643420457839966,0.0,1.9118785858154297,-1.1941194534301758,-0.19175104796886444,24.5,0.0,2.1572113037109375,-1.3189315795898438,-0.19175104796886444,20.5,0.0,2.361774444580078,-1.3811588287353516,-1.9175104796886444,20.75,0.0,2.4622678756713867,-1.4330148696899414,-1.9175104796886444,14.75,0.0,2.079606056213379,-1.0564327239990234,-0.19175104796886444,23.75,0.0,3.0820369720458984,-1.2431144714355469,0.0,16.25,0.0,3.453969955444336,-1.4530420303344727,0.0,13.5,,,,,,,,,,,,,,,,,,,,,,,,,,,,,,,,,,,,,,,,
0.0,0.0077423034235835075,2.258478879928589,-1.183648943901062,0.022091323509812355,-1.4222655296325684,-1.1270506381988525,0.015682827681303024,-1.059871792793274,-0.6364580988883972,0.0,2.0456314086914062,-1.2592077255249023,-0.3835020959377289,25.5,0.0,2.1175146102905273,-1.335740089416504,-0.3835020959377289,24.5,0.0,2.296328544616699,-1.3110637664794922,-1.5340083837509155,19.0,0.0,2.4755001068115234,-1.360774040222168,-1.5340083837509155,12.25,0.0,2.057790756225586,-0.9788274765014648,-1.5340083837509155,22.5,0.0,2.153635025024414,-0.8214712142944336,0.0,23.5,0.0,3.1789541244506836,-1.3518333435058594,0.0,16.5,0.0,3.3892393112182617,-1.2527704238891602,0.0,15.5,,,,,,,,,,,,,,,,,,,,,,,,,,,,,,,,,,,
0.0,0.007959089241921902,2.1247804164886475,-1.3240025043487549,0.021200932562351227,-1.4576412439346313,-1.2890686988830566,0.01442698109894991,-0.9351457357406616,-0.7709202766418457,0.0,2.0842552185058594,-1.2545585632324219,0.19175104796886444,24.75,0.0,2.1293163299560547,-1.3278722763061523,0.19175104796886444,24.25,0.0,2.205491065979004,-1.4072656631469727,0.19175104796886444,15.0,0.0,1.9876956939697266,-1.0231733322143555,-0.3835020959377289,20.25,0.0,1.8814802169799805,-0.7867813110351562,-0.3835020959377289,12.5,0.0,2.432584762573242,-1.1054277420043945,0.0,17.25,0.0,3.1685829162597656,-1.6400814056396484,0.0,14.0,0.0,2.13468074798584,-0.8339881896972656,0.0,24.25,,,,,,,,,,,,,,,,,,,,,,,,,,,,,,,,,,,
0.0,0.007071120664477348,2.078380584716797,-1.3491543531417847,0.018966538831591606,-1.370165228843689,-1.1664530038833618,0.012505467981100082,-0.7540342211723328,-0.5974933505058289,0.0,1.866459846496582,-1.2105703353881836,-0.19175104796886444,19.5,0.0,2.089977264404297,-1.2112855911254883,-0.19175104796886444,22.5,0.0,2.178311347961426,-1.2617111206054688,-0.3835020959377289,20.0,0.0,2.3227930068969727,-1.2946128845214844,-0.3835020959377289,13.5,0.0,2.669692039489746,-1.143336296081543,-0.3835020959377289,12.25,0.0,2.9268264770507812,-1.0650157928466797,-1.5340083837509155,13.75,0.0,3.0988454818725586,-1.0160207748413086,-1.5340083837509155,13.5,0.0,2.324223518371582,-1.2878179550170898,0.0,13.0,0.0,2.994418144226074,-1.645803451538086,0.0,13.0,,,,,,,,,,,,,,,,,,,,,,,,,,,,,,
0.0,0.007415170781314373,1.9942716360092163,-1.4023115634918213,0.01828327402472496,-1.322713851928711,-1.1223344802856445,0.011493444442749023,-0.6154942512512207,-0.522223949432373,0.0,1.9966363906860352,-1.1837482452392578,0.19175104796886444,18.25,0.0,1.9336938858032227,-0.9920597076416016,-0.3835020959377289,22.0,0.0,2.2727251052856445,-1.1358261108398438,-0.3835020959377289,17.5,0.0,2.454042434692383,-1.110076904296875,-0.7670041918754578,13.5,0.0,2.273440361022949,-1.370072364807129,0.0,13.5,,,,,,,,,,,,,,,,,,,,,,,,,,,,,,,,,,,,,,,,,,,,,,,,,,
0.0,0.007194618694484234,1.9811913967132568,-1.4300895929336548,0.01697148196399212,-1.1448949575424194,-1.0401217937469482,0.010223327204585075,-0.3589420020580292,-0.4283020496368408,0.0,1.8432140350341797,-1.1837482452392578,-0.19175104796886444,14.5,0.0,2.234816551208496,-1.221299171447754,-0.19175104796886444,17.0,0.0,2.1300315856933594,-1.1487007141113281,-0.19175104796886444,16.5,0.0,2.4268627166748047,-1.1265277862548828,-0.19175104796886444,12.5,0.0,3.139615058898926,-0.9963512420654297,-0.19175104796886444,13.25,0.0,2.2745132446289062,-1.358628273010254,0.0,13.5,,,,,,,,,,,,,,,,,,,,,,,,,,,,,,,,,,,,,,,,,,,,,
0.0,0.007256217300891876,1.9601601362228394,-1.4347491264343262,0.015980375930666924,-0.9921610355377197,-0.908381998538971,0.009155218489468098,-0.16811811923980713,-0.28015458583831787,0.0,1.8961429595947266,-1.1311769485473633,-0.3835020959377289,18.5,0.0,2.0281076431274414,-1.1812448501586914,-0.3835020959377289,17.0,0.0,2.3900270462036133,-0.9359121322631836,-0.19175104796886444,15.75,0.0,2.541661262512207,-0.9208917617797852,-0.19175104796886444,14.5,0.0,2.169370651245117,-1.2531280517578125,0.0,23.75,0.0,2.270221710205078,-1.347184181213379,0.0,15.0,,,,,,,,,,,,,,,,,,,,,,,,,,,,,,,,,,,,,,,,,,,,,
0.0,0.00793428160250187,1.8925974369049072,-1.4945813417434692,0.01573564112186432,-0.9452896118164062,-0.8812806606292725,0.008529320359230042,-0.10472290217876434,-0.233584925532341,0.0,1.9937753677368164,-1.3446807861328125,-0.19175104796886444,20.5,0.0,2.119302749633789,-1.198410987854004,-0.19175104796886444,17.0,0.0,1.8700361251831055,-1.2034177780151367,0.0,26.0,0.0,1.9962787628173828,-1.301407814025879,0.0,27.0,0.0,2.1425485610961914,-1.317143440246582,0.0,23.5,0.0,2.269864082336426,-1.3539791107177734,0.0,15.25,,,,,,,,,,,,,,,,,,,,,,,,,,,,,,,,,,,,,,,,,,,,,
0.0,0.008387182839214802,1.8158661127090454,-1.5618793964385986,0.015200254507362843,-0.9144953489303589,-0.8731905221939087,0.007779792882502079,-0.059825483709573746,-0.2127193659543991,0.0,1.7806291580200195,-1.490950584411621,-0.19175104796886444,13.5,0.0,1.8324851989746094,-1.2459754943847656,0.19175104796886444,14.0,0.0,1.8796920776367188,-1.178741455078125,0.0,25.75,0.0,2.007722854614258,-1.2820959091186523,0.0,26.5,0.0,2.147555351257324,-1.295328140258789,0.0,23.5,0.0,2.2433996200561523,-1.3632774353027344,0.0,14.75,,,,,,,,,,,,,,,,,,,,,,,,,,,,,,,,,,,,,,,,,,,,,
0.0,0.00862771738320589,1.7991888523101807,-1.6081990003585815,0.014461597427725792,-0.7819135785102844,-0.835552453994751,0.006984250620007515,0.0764155238866806,-0.17636601626873016,0.0,1.9437074661254883,-1.451253890991211,0.19175104796886444,14.0,0.0,2.196192741394043,-1.2874603271484375,0.19175104796886444,14.75,0.0,1.9848346710205078,-1.3096332550048828,0.0,26.25,0.0,2.288818359375,-1.278519630432129,0.0,14.5,,,,,,,,,,,,,,,,,,,,,,,,,,,,,,,,,,,,,,,,,,,,,,,,,,,,,,,
0.0,0.008086916990578175,1.902501106262207,-1.532733678817749,0.012857387773692608,-0.45034393668174744,-0.5994567275047302,0.00578151922672987,0.3736116886138916,0.025879859924316406,0.0,1.944422721862793,-1.056075096130371,-0.19175104796886444,14.25,0.0,2.1947622299194336,-0.9895563125610352,0.19175104796886444,15.0,0.0,2.3070573806762695,-0.9806156158447266,0.19175104796886444,15.5,0.0,2.327084541320801,-1.2491941452026367,0.0,15.0,,,,,,,,,,,,,,,,,,,,,,,,,,,,,,,,,,,,,,,,,,,,,,,,,,,,,,,
0.0,-4.9149992264574394e-05,2.893059492111206,-0.8974555730819702,0.0002503837167751044,-0.6522768139839172,-0.850748598575592,0.00038364576175808907,-0.47941479086875916,-0.48182573914527893,0.0,3.0995607376098633,-1.5192031860351562,-0.19175104796886444,13.25,0.0,3.048062324523926,-1.282811164855957,-0.19175104796886444,13.25,0.0,2.967953681945801,-1.0042190551757812,-0.5752531439065933,15.0,0.0,2.7805566787719727,-0.6176233291625977,-0.7670041918754578,13.75,0.0,2.648591995239258,-0.2535581588745117,-0.7670041918754578,20.0,0.0,2.559542655944824,-0.148773193359375,-0.7670041918754578,14.25,0.0,2.6110410690307617,-0.21028518676757812,-0.7670041918754578,21.25,,,,,,,,,,,,,,,,,,,,,,,,,,,,,,,,,,,,,,,,
0.0,-2.0495892385952175e-05,2.7994446754455566,-0.8705829977989197,0.00029027892742305994,-0.7736371755599976,-0.6711622476577759,0.00038437297916971147,-0.6055688261985779,-0.25999900698661804,0.0,2.6367902755737305,-1.1969804763793945,-1.1505062878131866,19.5,0.0,2.8449296951293945,-1.136183738708496,-1.1505062878131866,16.0,0.0,2.9979944229125977,-1.2127161026000977,-0.19175104796886444,12.5,0.0,2.6063919067382812,-0.5199909210205078,-0.9587552398443222,21.25,0.0,2.512335777282715,-0.2206563949584961,-0.9587552398443222,21.25,0.0,2.5452375411987305,-0.20384788513183594,-0.9587552398443222,24.5,,,,,,,,,,,,,,,,,,,,,,,,,,,,,,,,,,,,,,,,,,,,,
0.0,6.377968020387925e-06,2.759035348892212,-0.7800858020782471,0.0003235231270082295,-0.7821056246757507,-0.4045632481575012,0.0003808618348557502,-0.5920442938804626,0.004552572965621948,0.0,2.9168128967285156,-1.5757083892822266,-0.5752531439065933,17.25,0.0,3.040194511413574,-1.5306472778320312,-0.5752531439065933,16.0,0.0,2.957940101623535,-1.1014938354492188,-0.5752531439065933,13.0,0.0,2.938985824584961,-1.0943412780761719,-0.5752531439065933,12.75,0.0,2.8957128524780273,-0.3687143325805664,-1.1505062878131866,16.75,0.0,2.4003982543945312,-0.0890493392944336,-0.9587552398443222,15.75,0.0,2.6407241821289062,-0.08368492126464844,-0.9587552398443222,15.5,0.0,2.462625503540039,-0.016808509826660156,-0.9587552398443222,24.5,0.0,2.4737119674682617,0.01609325408935547,-0.9587552398443222,24.5,0.0,2.6335716247558594,-0.08368492126464844,-0.9587552398443222,15.5,0.0,3.1267404556274414,-1.0439157485961914,0.0,16.5,0.0,3.380298614501953,-1.1701583862304688,0.0,15.75,0.0,3.308415412902832,-0.9044408798217773,0.0,16.5,0.0,2.840280532836914,-0.11301040649414062,0.0,24.5,,,,,
0.0,2.7969697839580476e-05,2.6530799865722656,-0.825036346912384,0.0003453063254710287,-0.8952056169509888,-0.4048798680305481,0.0003711094323080033,-0.6614676117897034,0.012695949524641037,0.0,2.8971433639526367,-1.159071922302246,-0.5752531439065933,16.25,0.0,3.030538558959961,-1.2652873992919922,-0.5752531439065933,17.0,0.0,3.1124353408813477,-1.3782978057861328,-0.5752531439065933,16.25,0.0,2.215147018432617,-0.7123947143554688,-0.7670041918754578,27.5,0.0,2.241969108581543,-0.6798505783081055,-0.7670041918754578,29.75,0.0,2.3424625396728516,-0.6401538848876953,-0.7670041918754578,23.75,0.0,2.8574466705322266,-0.6526708602905273,-1.342257335782051,15.5,0.0,2.6324987411499023,-0.5053281784057617,-1.342257335782051,17.75,0.0,3.090977668762207,-1.1844635009765625,0.0,17.75,0.0,3.268718719482422,-1.0514259338378906,0.0,17.5,,,,,,,,,,,,,,,,,,,,,,,,,
0.0,4.476070898817852e-05,2.540715456008911,-0.8840274214744568,0.00035620908602140844,-1.0243110656738281,-0.42213329672813416,0.00035509149893186986,-0.7556743025779724,0.012334872037172318,0.0,2.980470657348633,-1.649022102355957,-0.7670041918754578,12.75,0.0,2.670407295227051,-1.2470483779907227,-1.72575943171978,15.5,0.0,2.7533769607543945,-1.406550407409668,-1.72575943171978,18.0,0.0,2.848505973815918,-1.4884471893310547,-2.109261527657509,16.0,0.0,2.555966377258301,-0.8661746978759766,-1.1505062878131866,20.0,0.0,2.2072792053222656,-0.6430149078369141,-0.19175104796886444,26.5,0.0,2.26593017578125,-0.5929470062255859,-0.19175104796886444,27.5,0.0,2.387523651123047,-0.6279945373535156,-1.1505062878131866,23.0,0.0,3.193974494934082,-1.2177228927612305,0.0,17.25,0.0,3.358125686645508,-1.1866092681884766,0.0,15.25,,,,,,,,,,,,,,,,,,,,,,,,,
0.0,6.483039760496467e-05,2.3968605995178223,-0.9757221341133118,0.00036857405211776495,-1.178138256072998,-0.5032685995101929,0.000340979197062552,-0.8459282517433167,-0.05203154310584068,0.0,2.2466182708740234,-1.2159347534179688,-0.19175104796886444,22.25,0.0,2.50089168548584,-1.3693571090698242,-2.109261527657509,15.0,0.0,2.3975372314453125,-1.279592514038086,-2.109261527657509,21.25,0.0,2.0595788955688477,-0.9126663208007812,-0.7670041918754578,23.25,0.0,2.166152000427246,-0.9244680404663086,-0.7670041918754578,22.75,,,,,,,,,,,,,,,,,,,,,,,,,,,,,,,,,,,,,,,,,,,,,,,,,,
0.0,8.192686073016375e-05,2.2498526573181152,-1.1159015893936157,0.00037533798604272306,-1.292143702507019,-0.6883578300476074,0.00032487211865372956,-0.847037136554718,-0.22994637489318848,0.0,2.007722854614258,-1.1326074600219727,-0.3835020959377289,24.25,0.0,2.066373825073242,-1.239180564880371,-0.3835020959377289,28.5,0.0,2.1092891693115234,-1.3096332550048828,-0.3835020959377289,27.25,0.0,2.2448301315307617,-1.3561248779296875,-0.3835020959377289,19.5,0.0,2.432584762573242,-1.463770866394043,-1.72575943171978,13.25,,,,,,,,,,,,,,,,,,,,,,,,,,,,,,,,,,,,,,,,,,,,,,,,,,
0.0,9.627872350392863e-05,2.1093647480010986,-1.2596338987350464,0.00037744021392427385,-1.347787857055664,-0.8875634670257568,0.0003073776315432042,-0.7613906264305115,-0.4304297864437103,0.0,1.9898414611816406,-1.3325214385986328,0.9587552398443222,26.0,0.0,2.0749568939208984,-1.376509666442871,0.9587552398443222,25.25,0.0,2.1622180938720703,-1.4069080352783203,0.9587552398443222,15.25,0.0,1.9129514694213867,-1.170516014099121,-0.5752531439065933,24.0,0.0,1.864314079284668,-0.9838342666625977,-1.342257335782051,14.0,0.0,2.947568893432617,-1.4880895614624023,0.0,18.5,0.0,3.062725067138672,-1.477360725402832,0.0,18.0,0.0,3.207564353942871,-1.4580488204956055,0.0,12.25,,,,,,,,,,,,,,,,,,,,,,,,,,,,,,,,,,,
0.0,9.576677985023707e-05,2.011606216430664,-1.290174126625061,0.00035770400427281857,-1.3269672393798828,-0.8411049842834473,0.0002771447761915624,-0.643143892288208,-0.3718216121196747,0.0,1.8335580825805664,-1.0367631912231445,-0.19175104796886444,19.75,0.0,2.0667314529418945,-1.273512840270996,-0.3835020959377289,21.0,0.0,2.215862274169922,-1.3071298599243164,-0.3835020959377289,18.5,0.0,2.300262451171875,-1.3303756713867188,-0.3835020959377289,17.75,0.0,1.726984977722168,-0.8608102798461914,-0.5752531439065933,14.25,0.0,1.731276512145996,-0.8786916732788086,-0.5752531439065933,18.25,0.0,2.4726390838623047,-1.2903213500976562,-0.3835020959377289,12.0,0.0,2.9550790786743164,-1.46484375,0.0,18.0,0.0,3.0916929244995117,-1.4165639877319336,0.0,17.25,0.0,2.3725032806396484,-0.4413127899169922,0.0,26.75,,,,,,,,,,,,,,,,,,,,,,,,,
0.0,0.00011020470992662013,1.933288812637329,-1.3653042316436768,0.0003574018192011863,-1.2594653367996216,-0.8917949795722961,0.0002607177593745291,-0.4770038425922394,-0.4200036823749542,0.0,1.8900632858276367,-1.1715888977050781,0.5752531439065933,18.25,0.0,2.041339874267578,-1.2352466583251953,0.19175104796886444,17.5,0.0,2.2319555282592773,-1.2248754501342773,0.19175104796886444,18.0,0.0,2.3832321166992188,-1.223444938659668,-0.19175104796886444,12.75,0.0,3.0999183654785156,-0.5646944046020508,-1.5340083837509155,15.25,0.0,3.1363964080810547,-0.6680488586425781,-1.5340083837509155,15.25,0.0,2.9729604721069336,-1.444101333618164,0.0,17.75,0.0,3.0891895294189453,-1.4358758926391602,0.0,17.5,,,,,,,,,,,,,,,,,,,,,,,,,,,,,,,,,,,
0.0,0.00011893584451172501,1.8618359565734863,-1.395700216293335,0.0003476077108643949,-1.1828707456588745,-0.840811014175415,0.00023915106430649757,-0.33565840125083923,-0.35590124130249023,0.0,1.7892122268676758,-1.1615753173828125,0.19175104796886444,21.0,0.0,1.725912094116211,-1.0542869567871094,0.19175104796886444,13.0,0.0,2.025604248046875,-1.2084245681762695,-0.3835020959377289,17.25,0.0,2.3235082626342773,-1.0793209075927734,-0.3835020959377289,17.0,0.0,2.7676820755004883,-1.4333724975585938,0.0,15.25,0.0,2.9507875442504883,-1.452326774597168,0.0,16.75,0.0,3.082394599914551,-1.4498233795166016,0.0,16.0,,,,,,,,,,,,,,,,,,,,,,,,,,,,,,,,,,,,,,,,
0.0,0.00012398230319377035,1.8531776666641235,-1.403615117073059,0.0003325152792967856,-1.0026497840881348,-0.7450277805328369,0.00021564136841334403,-0.11637036502361298,-0.2508636713027954,0.0,2.1986961364746094,-1.2888908386230469,-0.19175104796886444,17.25,0.0,2.0062923431396484,-1.016378402709961,-0.19175104796886444,15.25,0.0,2.118229866027832,-1.1436939239501953,-0.19175104796886444,17.75,0.0,2.427220344543457,-1.2198686599731445,-0.3835020959377289,13.25,0.0,2.8166770935058594,-0.7288455963134766,-0.9587552398443222,12.75,0.0,3.1496286392211914,-1.3890266418457031,0.0,14.25,,,,,,,,,,,,,,,,,,,,,,,,,,,,,,,,,,,,,,,,,,,,,
0.0,-7.515836841776036e-06,3.064786911010742,-0.3277330994606018,-7.001788617344573e-06,-0.5834363102912903,-0.26456111669540405,4.206181074550841e-06,-0.5840051770210266,-0.5094172954559326,0.0,3.2268762588500977,-0.9884834289550781,-0.3835020959377289,18.0,0.0,3.1528472900390625,-0.7832050323486328,-0.3835020959377289,21.5,0.0,3.0384063720703125,-0.4420280456542969,-0.3835020959377289,23.5,0.0,2.8123855590820312,0.054001808166503906,-0.5752531439065933,24.5,0.0,2.903580665588379,-0.07402896881103516,-0.3835020959377289,25.0,0.0,2.727627754211426,0.1373291015625,-0.7670041918754578,18.75,0.0,3.3524036407470703,-1.2398958206176758,0.0,19.25,0.0,3.542304039001465,-1.154780387878418,0.0,15.0,,,,,,,,,,,,,,,,,,,,,,,,,,,,,,,,,,,
0.0,-5.9194062487222254e-06,2.9855542182922363,-0.35094213485717773,-3.933186690119328e-06,-0.6739578247070312,-0.3055095076560974,5.7832371567201335e-06,-0.6190449595451355,-0.5001857876777649,0.0,3.131747245788574,-1.6433000564575195,-0.7670041918754578,14.25,0.0,3.0777454376220703,-1.2753009796142578,-0.5752531439065933,20.5,0.0,3.1235218048095703,-1.3600587844848633,-0.5752531439065933,18.75,0.0,3.0412673950195312,-0.619053840637207,-0.5752531439065933,17.5,0.0,2.8367042541503906,-0.008940696716308594,-0.7670041918754578,21.75,0.0,2.562403678894043,0.2371072769165039,-0.7670041918754578,13.0,0.0,2.672553062438965,0.1609325408935547,-0.7670041918754578,22.0,0.0,2.738356590270996,0.09548664093017578,-0.7670041918754578,24.25,0.0,3.5015344619750977,-1.2624263763427734,0.0,14.0,0.0,3.096342086791992,-0.3132820129394531,0.0,26.5,,,,,,,,,,,,,,,,,,,,,,,,,
0.0,-4.5665778998227324e-06,2.901432752609253,-0.3572978377342224,-1.3119949926476693e-06,-0.7479385137557983,-0.31089046597480774,7.014629318291554e-06,-0.6239358186721802,-0.46270981431007385,0.0,3.1571388244628906,-1.719832420349121,-0.19175104796886444,14.25,0.0,3.173232078552246,-1.381516456604004,-0.19175104796886444,14.75,0.0,3.12960147857666,-0.8246898651123047,-0.3835020959377289,14.0,0.0,2.9801130294799805,-0.6330013275146484,-0.3835020959377289,18.0,0.0,2.6836395263671875,-0.10156631469726562,-0.9587552398443222,26.25,0.0,2.826690673828125,-0.24569034576416016,-0.9587552398443222,21.75,0.0,2.5985240936279297,0.02288818359375,-0.7670041918754578,27.0,0.0,2.528071403503418,0.1055002212524414,-0.7670041918754578,22.75,0.0,3.4596920013427734,-1.3890266418457031,0.0,14.5,0.0,3.3692121505737305,-1.1898279190063477,0.0,19.25,0.0,3.0509233474731445,-0.4502534866333008,0.0,24.25,,,,,,,,,,,,,,,,,,,,
0.0,-3.417979314690456e-06,2.8237111568450928,-0.46974435448646545,9.124825623985089e-07,-0.8159032464027405,-0.4971179664134979,7.950878170959186e-06,-0.6309885382652283,-0.5835473537445068,0.0,3.071308135986328,-1.4187097549438477,-0.3835020959377289,15.75,0.0,3.0208826065063477,-1.2656450271606445,-0.3835020959377289,18.25,0.0,2.9979944229125977,-1.0557174682617188,-0.3835020959377289,18.5,0.0,2.8688907623291016,-0.5410909652709961,-0.9587552398443222,15.0,0.0,2.6460886001586914,-0.27573108673095703,-0.9587552398443222,19.0,0.0,2.5069713592529297,-0.15878677368164062,-0.9587552398443222,18.25,0.0,2.558112144470215,-0.21529197692871094,-0.9587552398443222,21.75,0.0,3.3609867095947266,-1.2102127075195312,0.0,19.75,0.0,3.0541419982910156,-0.43702125549316406,0.0,24.25,,,,,,,,,,,,,,,,,,,,,,,,,,,,,,
0.0,-2.2639719645667356e-06,2.729308843612671,-0.6142048239707947,2.992248937516706e-06,-0.9211549758911133,-0.7147185802459717,8.755097042012494e-06,-0.6915245056152344,-0.7172207832336426,0.0,2.9997825622558594,-1.4462471008300781,-0.3835020959377289,17.25,0.0,3.074169158935547,-1.5295743942260742,-0.19175104796886444,18.25,0.0,3.2193660736083984,-1.5149116516113281,-0.9587552398443222,14.25,0.0,2.945065498352051,-1.199483871459961,-0.3835020959377289,13.0,0.0,2.781987190246582,-0.7592439651489258,-1.1505062878131866,14.0,0.0,2.434372901916504,-0.4413127899169922,-0.9587552398443222,26.5,0.0,2.4526119232177734,-0.4448890686035156,-1.1505062878131866,27.25,0.0,2.5463104248046875,-0.4928112030029297,-1.1505062878131866,20.0,0.0,2.384662628173828,-0.25212764739990234,-0.9587552398443222,17.25,0.0,3.230452537536621,-1.5270709991455078,0.0,16.75,0.0,3.155350685119629,-1.3428926467895508,0.0,19.25,0.0,3.1585693359375,-0.7148981094360352,0.0,19.5,,,,,,,,,,,,,,,
0.0,-1.4013101008458761e-06,2.6059134006500244,-0.765630841255188,4.5350116124609485e-06,-1.0505762100219727,-0.9218326807022095,9.179493645206094e-06,-0.7613619565963745,-0.8316828608512878,0.0,3.0698776245117188,-1.4233589172363281,-0.7670041918754578,15.0,0.0,2.2319555282592773,-0.8475780487060547,-1.1505062878131866,25.75,0.0,2.2079944610595703,-0.7642507553100586,-0.9587552398443222,29.0,0.0,2.210855484008789,-0.7778406143188477,-0.9587552398443222,31.75,0.0,2.4797916412353516,-0.8618831634521484,-0.5752531439065933,13.5,0.0,2.8749704360961914,-0.8826255798339844,-0.5752531439065933,13.25,0.0,2.9658079147338867,-1.0260343551635742,-0.5752531439065933,16.5,0.0,3.0527114868164062,-1.1326074600219727,-0.5752531439065933,16.75,,,,,,,,,,,,,,,,,,,,,,,,,,,,,,,,,,,
0.0,-6.631751148233889e-07,2.484935998916626,-0.8584089875221252,5.766309186583385e-06,-1.159558653831482,-0.9904241561889648,9.380562005389947e-06,-0.8074017763137817,-0.8117249011993408,0.0,2.876758575439453,-1.2416839599609375,-1.1505062878131866,13.25,0.0,3.0083656311035156,-1.3074874877929688,-0.7670041918754578,14.75,0.0,3.1310319900512695,-1.317143440246582,-0.7670041918754578,13.0,0.0,2.104640007019043,-0.7181167602539062,-0.7670041918754578,27.5,0.0,2.2219419479370117,-0.7320642471313477,-0.7670041918754578,26.25,0.0,2.346038818359375,-0.8046627044677734,-0.5752531439065933,24.5,0.0,2.475857734680176,-0.8869171142578125,-1.72575943171978,16.25,0.0,2.1021366119384766,-0.4767179489135742,-0.7670041918754578,13.25,,,,,,,,,,,,,,,,,,,,,,,,,,,,,,,,,,,
0.0,-7.465659734862129e-08,2.356552839279175,-1.0068732500076294,6.647255304415012e-06,-1.3217616081237793,-1.1205946207046509,9.344327736471314e-06,-0.9468011856079102,-0.8257879614830017,0.0,2.3893117904663086,-1.3167858123779297,-1.72575943171978,15.75,0.0,2.5767087936401367,-1.5306472778320312,-1.72575943171978,14.0,0.0,2.7294158935546875,-1.5864372253417969,-1.1505062878131866,19.25,0.0,2.830624580383301,-1.541733741760254,-1.1505062878131866,19.25,0.0,2.2476911544799805,-1.12152099609375,-1.72575943171978,19.25,0.0,2.9633045196533203,-1.5606880187988281,-0.19175104796886444,13.0,0.0,2.070307731628418,-0.7953643798828125,-0.7670041918754578,23.75,0.0,2.156853675842285,-0.857234001159668,-0.7670041918754578,21.25,0.0,3.1374692916870117,-1.6540288925170898,0.0,13.75,,,,,,,,,,,,,,,,,,,,,,,,,,,,,,
0.0,4.81632355331385e-07,2.210294246673584,-1.1600348949432373,7.362648830167018e-06,-1.4504159688949585,-1.2645630836486816,9.201477951137349e-06,-0.9932096004486084,-0.8739607334136963,0.0,2.033829689025879,-1.2034177780151367,0.19175104796886444,19.25,0.0,2.182602882385254,-1.3135671615600586,-0.19175104796886444,16.25,0.0,2.368927001953125,-1.3943910598754883,-0.19175104796886444,14.25,0.0,2.488374710083008,-1.4998912811279297,-2.8762657195329666,15.75,0.0,2.582430839538574,-1.615762710571289,-1.5340083837509155,13.25,0.0,1.9125938415527344,-0.9895563125610352,-0.9587552398443222,20.0,0.0,3.1206607818603516,-1.6994476318359375,0.0,14.25,0.0,3.1102895736694336,-1.4380216598510742,0.0,17.5,,,,,,,,,,,,,,,,,,,,,,,,,,,,,,,,,,,
0.0,1.0494139814909431e-06,2.043031930923462,-1.3010916709899902,7.980412192409858e-06,-1.567824363708496,-1.3812569379806519,9.004183993965853e-06,-1.0004113912582397,-0.9081857800483704,0.0,1.7466545104980469,-1.2745857238769531,-0.19175104796886444,18.0,0.0,1.8936395645141602,-1.3997554779052734,-0.3835020959377289,17.75,0.0,2.1239519119262695,-1.3614892959594727,-0.3835020959377289,13.5,0.0,1.7720460891723633,-0.8797645568847656,-0.19175104796886444,13.75,0.0,3.1031370162963867,-1.4698505401611328,0.0,17.25,0.0,3.162503242492676,-1.6268491744995117,0.0,13.75,,,,,,,,,,,,,,,,,,,,,,,,,,,,,,,,,,,,,,,,,,,,,
0.0,1.5485522908420535e-06,1.8969225883483887,-1.3978914022445679,8.40440952742938e-06,-1.6074159145355225,-1.4124521017074585,8.69500854605576e-06,-0.9153292775154114,-0.8780107498168945,0.0,1.6955137252807617,-1.0231733322143555,0.3835020959377289,17.25,0.0,1.7344951629638672,-1.0607242584228516,0.3835020959377289,22.0,0.0,1.8013715744018555,-1.0786056518554688,0.3835020959377289,25.5,0.0,1.9129514694213867,-1.1687278747558594,-0.3835020959377289,19.0,0.0,3.1049251556396484,-1.484513282775879,0.0,17.25,0.0,2.9325485229492188,-1.136183738708496,0.0,14.25,0.0,3.1027793884277344,-1.143336296081543,0.0,16.5,,,,,,,,,,,,,,,,,,,,,,,,,,,,,,,,,,,,,,,,
0.0,2.1520236259675585e-06,1.7355352640151978,-1.528304934501648,8.884448106982745e-06,-1.680882453918457,-1.482241153717041,8.44334590510698e-06,-0.889176070690155,-0.8710618019104004,0.0,1.636505126953125,-1.3511180877685547,0.19175104796886444,24.75,0.0,1.6690492630004883,-1.2323856353759766,0.19175104796886444,19.0,0.0,2.63822078704834,-1.2842416763305664,0.0,12.25,0.0,3.080606460571289,-1.5270709991455078,0.0,17.0,0.0,2.933979034423828,-1.1311769485473633,0.0,14.0,0.0,3.097057342529297,-1.1837482452392578,0.0,16.5,,,,,,,,,,,,,,,,,,,,,,,,,,,,,,,,,,,,,,,,,,,,,
0.0,2.671109314178466e-06,1.598852276802063,-1.6238281726837158,9.166885320155416e-06,-1.694253921508789,-1.476375937461853,8.083410648396239e-06,-0.8101766705513,-0.7986479997634888,0.0,1.6411542892456055,-1.2917518615722656,0.19175104796886444,19.0,0.0,1.6515254974365234,-1.203775405883789,0.19175104796886444,16.25,0.0,2.110004425048828,-0.9140968322753906,0.19175104796886444,13.0,0.0,2.911090850830078,-1.1944770812988281,0.0,15.25,0.0,3.039836883544922,-1.2263059616088867,0.0,16.75,,,,,,,,,,,,,,,,,,,,,,,,,,,,,,,,,,,,,,,,,,,,,,,,,,
0.0,2.685834715521196e-06,1.5955557823181152,-1.6075396537780762,8.716215234017e-06,-1.4643486738204956,-1.2726885080337524,7.285031642823014e-06,-0.515436589717865,-0.5642027854919434,0.0,1.6937255859375,-1.2184381484985352,-0.19175104796886444,15.0,0.0,1.7123222351074219,-1.2767314910888672,-0.19175104796886444,19.0,0.0,1.9816160202026367,-1.1823177337646484,-0.19175104796886444,14.5,0.0,2.1532773971557617,-1.2288093566894531,-0.19175104796886444,13.25,0.0,1.864314079284668,-1.4008283615112305,0.0,24.5,0.0,2.5516748428344727,-1.3808012008666992,0.0,12.5,,,,,,,,,,,,,,,,,,,,,,,,,,,,,,,,,,,,,,,,,,,,,
0.0,-3.3921310205187183e-07,2.990494728088379,-0.12845760583877563,-8.447661912214244e-07,-0.8763241767883301,-0.006404511630535126,-4.3173525909878663e-07,-0.9757691025733948,-0.39746710658073425,0.0,3.124237060546875,-2.096414566040039,-0.7670041918754578,16.25,0.0,3.1328201293945312,-1.7756223678588867,-0.19175104796886444,17.25,0.0,3.198981285095215,-1.2792348861694336,-0.19175104796886444,19.25,0.0,3.1671524047851562,-1.0389089584350586,-0.5752531439065933,19.5,0.0,3.024458885192871,-0.40268898010253906,-0.5752531439065933,18.5,0.0,2.8678178787231445,-0.2002716064453125,-0.7670041918754578,23.5,0.0,2.803802490234375,-0.04649162292480469,-0.7670041918754578,23.5,0.0,2.7022361755371094,0.11229515075683594,-0.7670041918754578,18.25,0.0,3.2494068145751953,-0.3898143768310547,0.0,23.25,0.0,3.110647201538086,-0.15556812286376953,0.0,24.25,,,,,,,,,,,,,,,,,,,,,,,,,
0.0,-2.9654393074451946e-07,2.9162378311157227,-0.23166202008724213,-7.383914635283872e-07,-0.9230630397796631,-0.21624839305877686,-3.419553991079738e-07,-0.9096592664718628,-0.5425166487693787,0.0,3.092050552368164,-2.138972282409668,-0.7670041918754578,17.0,0.0,3.097057342529297,-1.8807649612426758,-0.19175104796886444,16.75,0.0,3.0448436737060547,-0.9677410125732422,-0.5752531439065933,22.5,0.0,3.119230270385742,-0.9970664978027344,-0.3835020959377289,21.0,0.0,3.2215118408203125,-1.0535717010498047,-0.3835020959377289,18.5,0.0,2.868175506591797,-0.21135807037353516,-1.1505062878131866,17.5,0.0,2.6181936264038086,0.07474422454833984,-0.9587552398443222,23.75,0.0,2.675771713256836,-0.00286102294921875,-0.7670041918754578,23.75,0.0,2.534151077270508,0.11730194091796875,-0.9587552398443222,18.25,0.0,3.2368898391723633,-0.5210638046264648,0.0,21.75,0.0,3.102421760559082,-0.25391578674316406,0.0,23.5,,,,,,,,,,,,,,,,,,,,
0.0,-2.638217040384916e-07,2.8172547817230225,-0.2859469950199127,-6.444547580031212e-07,-0.9962547421455383,-0.3254661560058594,-2.638508078689483e-07,-0.8739219903945923,-0.5920209288597107,0.0,3.014087677001953,-1.9701719284057617,-0.7670041918754578,19.0,0.0,3.0341148376464844,-1.690506935119629,-0.19175104796886444,18.75,0.0,3.120303153991699,-1.993417739868164,-0.7670041918754578,14.25,0.0,3.054499626159668,-1.2992620468139648,-0.5752531439065933,17.75,0.0,2.9990673065185547,-1.0449886322021484,-0.5752531439065933,15.5,0.0,2.876400947570801,-0.4209280014038086,-0.5752531439065933,14.5,0.0,2.5856494903564453,-0.02574920654296875,-0.9587552398443222,17.5,0.0,2.7115345001220703,-0.0514984130859375,-0.9587552398443222,18.0,0.0,2.3038387298583984,0.10263919830322266,-0.9587552398443222,14.25,0.0,2.410411834716797,0.11980533599853516,-0.9587552398443222,16.0,0.0,3.243684768676758,-0.5246400833129883,0.0,19.75,,,,,,,,,,,,,,,,,,,,
0.0,-2.3448140495929692e-07,2.703568696975708,-0.3631402552127838,-5.538348091249645e-07,-1.1166445016860962,-0.45652616024017334,-1.9050126809361245e-07,-0.9203925132751465,-0.6529406905174255,0.0,2.8928518295288086,-2.11179256439209,-0.5752531439065933,13.25,0.0,3.0112266540527344,-1.6776323318481445,-0.7670041918754578,16.25,0.0,3.119230270385742,-1.090407371520996,-0.5752531439065933,15.25,0.0,2.9050111770629883,-0.47457218170166016,-0.5752531439065933,15.25,0.0,3.051280975341797,-0.6662607192993164,-1.1505062878131866,13.25,0.0,2.4536848068237305,-0.30612945556640625,-1.5340083837509155,20.25,0.0,2.490520477294922,-0.3426074981689453,-1.5340083837509155,21.25,0.0,2.6543140411376953,-0.3114938735961914,-1.5340083837509155,15.25,0.0,2.352476119995117,-0.20313262939453125,-1.1505062878131866,12.5,0.0,3.275156021118164,-0.9702444076538086,0.0,18.5,0.0,3.2358169555664062,-0.6115436553955078,0.0,18.5,,,,,,,,,,,,,,,,,,,,
0.0,-2.0091852093173657e-07,2.588848352432251,-0.5719909071922302,-4.582277881581831e-07,-1.2394601106643677,-0.808823823928833,-1.1683432887821255e-07,-0.9770509600639343,-0.903242826461792,0.0,2.8581619262695312,-1.3135671615600586,-0.9587552398443222,15.0,0.0,2.9593706130981445,-1.4487504959106445,-0.9587552398443222,16.75,0.0,3.2129287719726562,-1.5642642974853516,-1.1505062878131866,14.25,0.0,3.1349658966064453,-1.4083385467529297,-0.9587552398443222,16.75,0.0,2.2666454315185547,-0.5192756652832031,-1.342257335782051,27.5,0.0,2.3020505905151367,-0.5736351013183594,-1.342257335782051,30.75,0.0,2.3539066314697266,-0.5879402160644531,-1.342257335782051,26.75,0.0,2.507328987121582,-0.6862878799438477,-1.5340083837509155,15.75,0.0,3.187894821166992,-1.9959211349487305,0.0,12.5,0.0,2.884984016418457,-0.010371208190917969,0.0,20.25,,,,,,,,,,,,,,,,,,,,,,,,,
0.0,-1.7453301381920028e-07,2.449838399887085,-0.8171394467353821,-3.7401491681521293e-07,-1.3767039775848389,-1.1954352855682373,-5.4152089035142126e-08,-1.0307717323303223,-1.1665343046188354,0.0,2.945065498352051,-1.7015933990478516,-1.342257335782051,17.0,0.0,3.0351877212524414,-1.8171072006225586,-1.342257335782051,13.0,0.0,2.8399229049682617,-1.4591217041015625,-1.342257335782051,16.5,0.0,2.9010772705078125,-1.5513896942138672,-1.342257335782051,18.5,0.0,2.047419548034668,-0.8425712585449219,-0.9587552398443222,30.25,0.0,2.110719680786133,-0.8980035781860352,-0.7670041918754578,28.0,0.0,2.240896224975586,-0.8819103240966797,-0.5752531439065933,22.0,0.0,2.0513534545898438,-0.6219148635864258,-0.9587552398443222,13.0,0.0,3.176450729370117,-1.9930601119995117,0.0,13.0,0.0,2.8874874114990234,-0.2238750457763672,0.0,15.5,,,,,,,,,,,,,,,,,,,,,,,,,
0.0,-1.5306687828342547e-07,2.3142685890197754,-1.0664970874786377,-2.9841839932487346e-07,-1.494709849357605,-1.5436499118804932,-1.9445423049546662e-10,-1.0631678104400635,-1.3728532791137695,0.0,2.0906925201416016,-1.1698007583618164,0.3835020959377289,22.25,0.0,2.1969079971313477,-1.260995864868164,-1.72575943171978,21.75,0.0,2.2966861724853516,-1.3804435729980469,-1.72575943171978,15.25,0.0,2.5244951248168945,-1.5099048614501953,-2.4927636235952377,13.25,0.0,2.7555227279663086,-1.5521049499511719,-0.19175104796886444,17.0,0.0,2.8706789016723633,-1.5864372253417969,-0.19175104796886444,18.25,0.0,2.9278993606567383,-1.6858577728271484,-0.19175104796886444,16.0,0.0,1.9755363464355469,-1.0181665420532227,-0.7670041918754578,21.5,0.0,2.7000904083251953,-0.1233816146850586,0.0,17.0,,,,,,,,,,,,,,,,,,,,,,,,,,,,,,
0.0,-1.4695896766170335e-07,2.162952184677124,-1.2016359567642212,-2.487802817086049e-07,-1.5770858526229858,-1.6407513618469238,3.2729431609368476e-08,-1.0252059698104858,-1.344348430633545,0.0,2.264857292175293,-1.4255046844482422,-0.7670041918754578,13.75,0.0,1.9565820693969727,-0.9180307388305664,-0.3835020959377289,20.0,0.0,2.148270606994629,-1.0099411010742188,-0.3835020959377289,19.5,0.0,2.238750457763672,-1.1773109436035156,0.19175104796886444,16.5,0.0,1.8292665481567383,-0.8246898651123047,-0.5752531439065933,15.25,0.0,2.6836395263671875,-0.1920461654663086,0.0,17.0,,,,,,,,,,,,,,,,,,,,,,,,,,,,,,,,,,,,,,,,,,,,,
0.0,-1.4049658147996524e-07,1.9871525764465332,-1.3591855764389038,-2.0221557406330248e-07,-1.6740554571151733,-1.77145254611969,6.135149277497476e-08,-0.9956785440444946,-1.3583743572235107,0.0,1.763463020324707,-1.2001991271972656,0.19175104796886444,20.5,0.0,1.8503665924072266,-1.363992691040039,-0.19175104796886444,17.25,0.0,1.706242561340332,-0.9927749633789062,0.19175104796886444,14.75,0.0,1.6711950302124023,-0.8765459060668945,0.19175104796886444,14.5,0.0,2.830624580383301,-0.7023811340332031,0.0,13.0,,,,,,,,,,,,,,,,,,,,,,,,,,,,,,,,,,,,,,,,,,,,,,,,,,
0.0,-1.3622016581393837e-07,1.8159992694854736,-1.5409468412399292,-1.617924283436878e-07,-1.7658088207244873,-1.9086288213729858,8.418114560981849e-08,-0.9830521941184998,-1.3643828630447388,0.0,1.6851425170898438,-1.454472541809082,0.19175104796886444,22.25,0.0,1.7470121383666992,-1.5245676040649414,0.19175104796886444,21.0,0.0,2.0045042037963867,-1.427292823791504,-0.3835020959377289,15.5,,,,,,,,,,,,,,,,,,,,,,,,,,,,,,,,,,,,,,,,,,,,,,,,,,,,,,,,,,,,
0.0,-1.337032529136195e-07,1.7189712524414062,-1.640857458114624,-1.2800062165752024e-07,-1.697855830192566,-1.8674639463424683,1.0068960420994699e-07,-0.8158713579177856,-1.2117019891738892,0.0,1.9279718399047852,-1.0145902633666992,0.19175104796886444,19.0,0.0,2.0574331283569336,-0.9512901306152344,0.19175104796886444,13.25,,,,,,,,,,,,,,,,,,,,,,,,,,,,,,,,,,,,,,,,,,,,,,,,,,,,,,,,,,,,,,,,,
0.0,0.01116871740669012,3.15836238861084,-0.2619871199131012,0.03667905926704407,-0.4910755455493927,0.06672526150941849,0.03380743786692619,-0.6961076259613037,-0.3421284854412079,0.0,3.1800270080566406,-1.8149614334106445,-0.7670041918754578,14.0,0.0,3.2154321670532227,-1.9594430923461914,-0.5752531439065933,13.0,0.0,3.2161474227905273,-1.1916160583496094,-0.7670041918754578,13.5,0.0,3.0791759490966797,-0.3769397735595703,-0.3835020959377289,20.75,0.0,3.180384635925293,-0.49746036529541016,-0.5752531439065933,17.75,0.0,2.8856992721557617,0.06258487701416016,-0.5752531439065933,13.75,0.0,2.9969215393066406,-0.08797645568847656,-0.3835020959377289,19.0,0.0,3.254413604736328,-2.373933792114258,0.0,12.75,,,,,,,,,,,,,,,,,,,,,,,,,,,,,,,,,,,
0.0,0.010408389382064342,3.093296527862549,-0.3077525198459625,0.03456319123506546,-0.5865022540092468,-0.04739456623792648,0.030903032049536705,-0.7302038669586182,-0.4052872657775879,0.0,3.2869577407836914,-1.318216323852539,-0.3835020959377289,14.25,0.0,3.13568115234375,-1.0285377502441406,-0.3835020959377289,18.75,0.0,3.2726526260375977,-1.0439157485961914,-0.5752531439065933,18.0,0.0,2.994418144226074,-0.11014938354492188,-1.1505062878131866,21.75,0.0,2.768397331237793,-0.015735626220703125,-0.5752531439065933,15.0,0.0,2.8563737869262695,0.009298324584960938,-0.5752531439065933,24.75,0.0,2.8935670852661133,-0.05793571472167969,-0.5752531439065933,26.25,0.0,3.401041030883789,-1.5467405319213867,0.0,14.75,0.0,3.073453903198242,-0.0654458999633789,0.0,29.0,,,,,,,,,,,,,,,,,,,,,,,,,,,,,,
0.0,0.010078823193907738,3.018339157104492,-0.26489531993865967,0.0330638661980629,-0.6688421964645386,-0.012040860950946808,0.02852185256779194,-0.7330859899520874,-0.3452115058898926,0.0,3.095269203186035,-2.578139305114746,-0.5752531439065933,14.0,0.0,3.0241012573242188,-2.115011215209961,-0.5752531439065933,13.5,0.0,3.075242042541504,-2.3038387298583984,-0.5752531439065933,16.75,0.0,3.0165910720825195,-0.5489587783813477,-0.5752531439065933,22.75,0.0,3.163576126098633,-0.6490945816040039,-0.5752531439065933,20.0,0.0,3.2941102981567383,-0.5625486373901367,-0.19175104796886444,15.5,0.0,2.7691125869750977,0.04756450653076172,-0.7670041918754578,30.0,0.0,2.840280532836914,-0.054001808166503906,-0.7670041918754578,27.25,0.0,2.582073211669922,0.16736984252929688,-0.7670041918754578,14.5,0.0,2.713322639465332,0.09334087371826172,-0.7670041918754578,25.25,0.0,3.300905227661133,-1.0482072830200195,0.0,21.5,0.0,3.0509233474731445,-0.10693073272705078,0.0,28.25,0.0,2.901434898376465,0.0286102294921875,0.0,30.75,,,,,,,,,,
0.0,0.00972864031791687,2.9344284534454346,-0.35286298394203186,0.03150750696659088,-0.7691102027893066,-0.18422135710716248,0.026238881051540375,-0.7662293910980225,-0.4570773243904114,0.0,3.110647201538086,-1.7906427383422852,-0.7670041918754578,15.5,0.0,3.130316734313965,-1.365065574645996,-0.5752531439065933,17.25,0.0,3.1185150146484375,-0.9802579879760742,-0.5752531439065933,19.25,0.0,3.003358840942383,-0.8218288421630859,-0.3835020959377289,21.5,0.0,2.8481483459472656,-0.3669261932373047,-0.9587552398443222,22.5,0.0,2.561330795288086,-0.1398324966430664,-0.9587552398443222,15.25,0.0,2.660393714904785,-0.16808509826660156,-0.9587552398443222,23.5,0.0,2.72369384765625,-0.2149343490600586,-0.9587552398443222,25.25,0.0,3.2955408096313477,-1.0585784912109375,0.0,21.25,0.0,3.2379627227783203,-0.6308555603027344,0.0,22.5,0.0,3.0280351638793945,-0.2002716064453125,0.0,24.25,0.0,2.7991533279418945,0.03361701965332031,0.0,30.75,,,,,,,,,,,,,,,
0.0,0.009482898749411106,2.8195788860321045,-0.33547303080558777,0.029963569715619087,-0.9096349477767944,-0.16489462554454803,0.02404049225151539,-0.8528088927268982,-0.39850321412086487,0.0,3.0487775802612305,-1.650094985961914,-0.3835020959377289,18.0,0.0,2.9872655868530273,-1.8990039825439453,-0.3835020959377289,14.5,0.0,3.062725067138672,-1.3010501861572266,-0.3835020959377289,14.0,0.0,3.0248165130615234,-0.766754150390625,-0.3835020959377289,13.25,0.0,2.8295516967773438,-0.5064010620117188,-1.1505062878131866,15.25,0.0,2.4912357330322266,-0.0972747802734375,-1.1505062878131866,28.75,0.0,2.5870800018310547,-0.20456314086914062,-1.1505062878131866,21.75,0.0,2.391815185546875,0.03325939178466797,-1.1505062878131866,20.5,0.0,2.4590492248535156,-0.05042552947998047,-1.1505062878131866,28.25,0.0,3.2765865325927734,-1.0521411895751953,0.0,20.5,0.0,3.377079963684082,-1.1075735092163086,0.0,18.25,0.0,3.2318830490112305,-0.6229877471923828,0.0,20.25,0.0,3.0280351638793945,-0.21314620971679688,0.0,21.75,0.0,2.7970075607299805,0.03647804260253906,0.0,30.75,,,,,
0.0,0.009942278265953064,2.6981699466705322,-0.40375006198883057,0.029265154153108597,-1.0422362089157104,-0.2885325253009796,0.022410525009036064,-0.9110466241836548,-0.46670007705688477,0.0,2.8924942016601562,-1.683354377746582,-0.3835020959377289,18.25,0.0,2.9758214950561523,-1.6704797744750977,-0.7670041918754578,18.25,0.0,3.2279491424560547,-1.4852285385131836,-0.7670041918754578,13.75,0.0,2.339601516723633,-0.3815889358520508,-1.1505062878131866,23.5,0.0,2.375364303588867,-0.42808055877685547,-1.1505062878131866,29.75,0.0,2.4039745330810547,-0.3980398178100586,-1.1505062878131866,27.0,0.0,2.5184154510498047,-0.536799430847168,-0.9587552398443222,16.5,0.0,3.1871795654296875,-0.6405115127563477,0.0,19.0,0.0,3.0090808868408203,-0.1970529556274414,0.0,18.75,0.0,2.784848213195801,0.032901763916015625,0.0,31.0,,,,,,,,,,,,,,,,,,,,,,,,,
0.0,0.008661096915602684,2.561797618865967,-0.6386362910270691,0.02655240334570408,-1.2190324068069458,-0.6735798120498657,0.019816920161247253,-1.032199740409851,-0.7437851428985596,0.0,2.892136573791504,-1.605391502380371,-1.1505062878131866,20.0,0.0,2.9497146606445312,-1.667618751525879,-1.1505062878131866,19.0,0.0,2.990126609802246,-1.8367767333984375,-1.1505062878131866,12.25,0.0,2.668619155883789,-1.2627840042114258,-1.5340083837509155,13.5,0.0,2.8238296508789062,-1.4401674270629883,-1.1505062878131866,16.75,0.0,2.4515390396118164,-0.9598731994628906,-1.5340083837509155,17.75,0.0,2.319216728210449,-0.7292032241821289,-0.7670041918754578,26.25,0.0,2.225518226623535,-0.5414485931396484,-1.1505062878131866,29.25,0.0,2.2519826889038086,-0.6469488143920898,-1.1505062878131866,30.5,0.0,3.165721893310547,-0.8389949798583984,0.0,19.5,0.0,3.0208826065063477,-0.30434131622314453,0.0,18.75,0.0,2.60317325592041,-0.1552104949951172,0.0,27.5,0.0,2.7719736099243164,0.021457672119140625,0.0,30.0,0.0,2.848505973815918,-0.06437301635742188,0.0,24.0,,,,,
0.0,0.00794142484664917,2.4341752529144287,-0.9008420705795288,0.024659045040607452,-1.3439632654190063,-1.0828392505645752,0.017827436327934265,-1.0557503700256348,-1.0326769351959229,0.0,2.200484275817871,-1.226663589477539,-1.5340083837509155,16.25,0.0,2.3903846740722656,-1.3865232467651367,-1.342257335782051,13.5,0.0,2.6232004165649414,-1.422286033630371,-1.1505062878131866,12.75,0.0,2.063870429992676,-1.1129379272460938,0.19175104796886444,18.75,0.0,2.788066864013672,-1.4494657516479492,-2.109261527657509,15.75,0.0,2.9211044311523438,-1.4938116073608398,-0.19175104796886444,16.75,0.0,3.0677318572998047,-1.508474349975586,-0.19175104796886444,15.75,0.0,3.2132863998413086,-1.525282859802246,-0.19175104796886444,12.5,0.0,2.0749568939208984,-0.6988048553466797,-0.7670041918754578,18.75,0.0,2.9801130294799805,-0.41556358337402344,0.0,18.75,0.0,2.5981664657592773,-0.16987323760986328,0.0,27.0,0.0,2.7687549591064453,0.0050067901611328125,0.0,28.5,,,,,,,,,,,,,,,
0.0,0.007833343930542469,2.2925798892974854,-1.1080580949783325,0.023419659584760666,-1.4613319635391235,-1.358184576034546,0.016250822693109512,-1.065201997756958,-1.1864725351333618,0.0,2.0856857299804688,-1.2491941452026367,0.19175104796886444,19.0,0.0,2.19118595123291,-1.3693571090698242,-0.19175104796886444,21.75,0.0,2.3099184036254883,-1.4140605926513672,-0.19175104796886444,18.25,0.0,2.512335777282715,-1.4079809188842773,-2.3010125756263733,15.0,0.0,1.993417739868164,-0.960230827331543,-0.19175104796886444,18.0,0.0,2.7344226837158203,-1.4140605926513672,-2.3010125756263733,13.25,0.0,2.92360782623291,-1.443028450012207,-0.19175104796886444,12.75,0.0,2.9801130294799805,-0.41484832763671875,0.0,17.5,0.0,2.5960206985473633,-0.1773834228515625,0.0,26.75,0.0,2.8520822525024414,-0.13554096221923828,0.0,22.5,0.0,2.76947021484375,0.011801719665527344,0.0,28.25,,,,,,,,,,,,,,,,,,,,
0.0,0.008429869078099728,2.119664192199707,-1.2983136177062988,0.022891733795404434,-1.5866793394088745,-1.5865145921707153,0.01509925164282322,-1.0662564039230347,-1.2983448505401611,0.0,1.7284154891967773,-1.3121366500854492,0.19175104796886444,12.75,0.0,1.8374919891357422,-1.2660026550292969,0.19175104796886444,26.0,0.0,1.9086599349975586,-1.2845993041992188,-0.5752531439065933,24.5,0.0,2.190113067626953,-1.5174150466918945,0.19175104796886444,13.0,0.0,2.113938331604004,-1.2459754943847656,-0.7670041918754578,19.0,0.0,3.026247024536133,-1.262068748474121,0.0,17.75,0.0,2.982616424560547,-0.6909370422363281,0.0,16.5,,,,,,,,,,,,,,,,,,,,,,,,,,,,,,,,,,,,,,,,
0.0,0.008268505334854126,2.0015084743499756,-1.43001389503479,0.021549390628933907,-1.5925626754760742,-1.685799479484558,0.013631897047162056,-0.9370679259300232,-1.2987171411514282,0.0,1.9283294677734375,-1.237034797668457,0.19175104796886444,26.75,0.0,1.8239021301269531,-1.1261701583862305,0.19175104796886444,14.5,0.0,1.8732547760009766,-1.176595687866211,0.19175104796886444,28.0,0.0,2.0395517349243164,-1.2867450714111328,-0.3835020959377289,19.75,0.0,3.0194520950317383,-1.282811164855957,-0.19175104796886444,14.5,0.0,3.0230283737182617,-1.0678768157958984,-0.19175104796886444,12.25,,,,,,,,,,,,,,,,,,,,,,,,,,,,,,,,,,,,,,,,,,,,,
0.0,0.009519186802208424,1.8609755039215088,-1.583402395248413,0.02180539257824421,-1.6366240978240967,-1.7864831686019897,0.013056996278464794,-0.8779808878898621,-1.282559871673584,0.0,2.0738840103149414,-1.2978315353393555,0.19175104796886444,20.75,0.0,2.0906925201416016,-1.3107061386108398,0.19175104796886444,18.5,0.0,3.213644027709961,-1.248478889465332,0.7670041918754578,12.5,,,,,,,,,,,,,,,,,,,,,,,,,,,,,,,,,,,,,,,,,,,,,,,,,,,,,,,,,,,,
0.0,0.00990288332104683,1.7734769582748413,-1.6772053241729736,0.021021142601966858,-1.5637545585632324,-1.7671390771865845,0.0119874756783247,-0.7041670083999634,-1.1696512699127197,0.0,1.919388771057129,-1.1426210403442383,0.19175104796886444,14.5,0.0,2.1228790283203125,-1.1744499206542969,0.3835020959377289,16.75,0.0,2.215862274169922,-1.1690855026245117,0.19175104796886444,18.25,0.0,3.124237060546875,-1.6887187957763672,0.0,12.5,,,,,,,,,,,,,,,,,,,,,,,,,,,,,,,,,,,,,,,,,,,,,,,,,,,,,,,
0.0,-2.180352748837322e-05,2.9054598808288574,-0.4413580298423767,-5.52045094082132e-05,-0.3682493269443512,-0.5161055326461792,-2.7798583687399514e-05,0.026912011206150055,-0.6110068559646606,0.0,3.1042098999023438,-1.2613534927368164,-0.19175104796886444,13.5,0.0,3.083467483520508,-0.9140968322753906,-0.19175104796886444,17.75,0.0,3.047347068786621,-0.5346536636352539,-0.19175104796886444,20.5,0.0,2.6836395263671875,-0.1977682113647461,-0.3835020959377289,21.75,0.0,2.718329429626465,-0.24819374084472656,-0.3835020959377289,24.0,0.0,2.8624534606933594,-0.2664327621459961,-0.3835020959377289,20.5,,,,,,,,,,,,,,,,,,,,,,,,,,,,,,,,,,,,,,,,,,,,,
0.0,-1.9924293155781925e-05,2.898745536804199,-0.4425505995750427,-4.895071469945833e-05,-0.34043172001838684,-0.4777583181858063,-2.240883986814879e-05,0.02789727970957756,-0.5218006372451782,0.0,3.6252737045288086,-1.420140266418457,-0.19175104796886444,14.25,0.0,3.769397735595703,-1.421213150024414,-0.19175104796886444,15.0,0.0,3.2079219818115234,-1.090407371520996,-0.19175104796886444,12.0,0.0,3.100275993347168,-0.5632638931274414,-0.5752531439065933,20.25,0.0,3.1603574752807617,-0.607609748840332,-0.19175104796886444,18.0,0.0,2.9500722885131836,-0.37086009979248047,-0.5752531439065933,15.0,0.0,2.656102180480957,0.32651424407958984,-0.3835020959377289,18.0,0.0,2.6711225509643555,0.39446353912353516,-0.3835020959377289,19.5,0.0,3.2472610473632812,-1.461625099182129,0.0,18.25,0.0,3.564119338989258,-1.3121366500854492,0.0,14.75,0.0,3.8155317306518555,-1.2917518615722656,0.0,15.25,,,,,,,,,,,,,,,,,,,,
0.0,-1.7742162526701577e-05,2.87272572517395,-0.4328179359436035,-4.239627014612779e-05,-0.3437400758266449,-0.41968223452568054,-1.7091675545088947e-05,-9.298138320446014e-05,-0.42276665568351746,0.0,3.1070709228515625,-1.0714530944824219,-0.19175104796886444,18.25,0.0,3.255128860473633,-1.0578632354736328,-0.19175104796886444,19.25,0.0,3.3849477767944336,-0.9559392929077148,0.3835020959377289,14.0,0.0,3.021240234375,-0.6619691848754883,-0.3835020959377289,20.75,0.0,2.8274059295654297,-0.2052783966064453,-0.5752531439065933,20.75,0.0,2.5888681411743164,0.09226799011230469,-0.5752531439065933,19.75,0.0,2.6367902755737305,0.11587142944335938,-0.5752531439065933,28.0,0.0,2.664327621459961,0.10585784912109375,-0.5752531439065933,27.25,,,,,,,,,,,,,,,,,,,,,,,,,,,,,,,,,,,
0.0,-1.59822593559511e-05,2.830063581466675,-0.5292486548423767,-3.6447581805987284e-05,-0.4017323851585388,-0.5426377654075623,-1.2362214874883648e-05,-0.09949760884046555,-0.48308607935905457,0.0,3.200411796569824,-1.593947410583496,0.19175104796886444,13.25,0.0,3.026247024536133,-1.170516014099121,-0.5752531439065933,19.0,0.0,3.1349658966064453,-1.30462646484375,-0.3835020959377289,15.75,0.0,2.9904842376708984,-1.0213851928710938,-0.5752531439065933,22.5,0.0,2.8696060180664062,-0.8293390274047852,-0.5752531439065933,17.5,0.0,2.5409460067749023,-0.11265277862548828,-0.5752531439065933,16.5,0.0,2.5974512100219727,-0.09763240814208984,-0.5752531439065933,22.0,0.0,2.674698829650879,-0.02002716064453125,-0.5752531439065933,20.25,0.0,3.0770301818847656,-1.4190673828125,0.0,21.25,0.0,3.5734176635742188,-1.3310909271240234,0.0,13.5,0.0,3.1238794326782227,-1.0052919387817383,0.0,22.25,,,,,,,,,,,,,,,,,,,,
0.0,-1.4393259334610775e-05,2.772135019302368,-0.5225421786308289,-3.084113632212393e-05,-0.48754608631134033,-0.45898938179016113,-8.056116712396033e-06,-0.23209244012832642,-0.3503700792789459,0.0,2.893209457397461,-1.1208057403564453,-0.7670041918754578,19.5,0.0,3.0219554901123047,-1.2373924255371094,-0.7670041918754578,16.75,0.0,3.134608268737793,-1.3386011123657227,-0.5752531439065933,17.0,0.0,2.8041601181030273,-0.9241104125976562,-0.3835020959377289,19.5,0.0,2.4261474609375,0.07581710815429688,-0.7670041918754578,12.25,0.0,2.628207206726074,-0.009655952453613281,-0.7670041918754578,21.75,0.0,2.5080442428588867,0.09512901306152344,-0.7670041918754578,24.25,0.0,2.5305747985839844,0.09334087371826172,-0.7670041918754578,26.75,0.0,3.0688047409057617,-1.4072656631469727,0.0,18.75,0.0,3.225088119506836,-1.544952392578125,0.0,14.25,0.0,3.6334991455078125,-1.2191534042358398,0.0,13.25,,,,,,,,,,,,,,,,,,,,
0.0,-1.2828448234358802e-05,2.7045886516571045,-0.6009679436683655,-2.549406053731218e-05,-0.5811564326286316,-0.5359631180763245,-4.1609391701058485e-06,-0.3447117805480957,-0.3747999966144562,0.0,2.893209457397461,-1.3661384582519531,-0.7670041918754578,20.5,0.0,2.984762191772461,-1.474142074584961,-0.7670041918754578,14.0,0.0,2.8073787689208984,-1.1419057846069336,-0.9587552398443222,20.25,0.0,2.8624534606933594,-1.2770891189575195,-0.7670041918754578,21.5,0.0,2.38037109375,-0.30291080474853516,-0.3835020959377289,14.5,0.0,2.4590492248535156,-0.19812583923339844,-0.3835020959377289,23.0,0.0,2.496957778930664,-0.1062154769897461,-0.3835020959377289,23.25,0.0,2.6407241821289062,-0.22172927856445312,-0.9587552398443222,17.0,0.0,2.9897689819335938,-1.554250717163086,0.0,17.75,0.0,3.2172203063964844,-1.5878677368164062,0.0,14.0,0.0,3.02731990814209,-1.0782480239868164,0.0,21.5,0.0,3.644585609436035,-1.2105703353881836,0.0,13.5,0.0,2.6990175247192383,0.06365776062011719,0.0,28.5,,,,,,,,,,
0.0,-1.1634604561550077e-05,2.594987154006958,-0.6639947295188904,-2.0822768419748172e-05,-0.7594450116157532,-0.5594888925552368,-8.569513738621026e-07,-0.5607067942619324,-0.3350061774253845,0.0,2.6961565017700195,-1.1637210845947266,-1.1505062878131866,20.0,0.0,2.7816295623779297,-1.2077093124389648,-1.1505062878131866,18.0,0.0,2.9189586639404297,-1.2727975845336914,-1.1505062878131866,13.75,0.0,2.5981664657592773,-0.8003711700439453,-1.1505062878131866,20.5,0.0,2.2573471069335938,-0.5679130554199219,-0.9587552398443222,29.0,0.0,2.290964126586914,-0.5121231079101562,-0.9587552398443222,31.25,0.0,2.4061203002929688,-0.3701448440551758,-0.9587552398443222,25.5,0.0,3.0001401901245117,-1.4852285385131836,0.0,16.25,0.0,3.2111406326293945,-1.634359359741211,0.0,12.75,0.0,3.0176639556884766,-1.0460615158081055,0.0,21.75,0.0,3.650665283203125,-1.2402534484863281,0.0,13.25,0.0,2.6950836181640625,0.03218650817871094,0.0,27.75,,,,,,,,,,,,,,,
0.0,-9.830325325310696e-06,2.468454122543335,-0.8036059737205505,-1.5610552509315312e-05,-0.9625585079193115,-0.7131788730621338,2.58623458648799e-06,-0.7767870426177979,-0.4130900204181671,0.0,2.5670528411865234,-1.336812973022461,-1.5340083837509155,13.25,0.0,2.820253372192383,-1.3450384140014648,-0.9587552398443222,14.25,0.0,2.9468536376953125,-1.4154911041259766,-1.9175104796886444,15.25,0.0,3.0237436294555664,-1.5327930450439453,-0.7670041918754578,13.0,0.0,2.1021366119384766,-0.7982254028320312,-0.7670041918754578,31.25,0.0,2.1514892578125,-0.8018016815185547,-0.7670041918754578,29.5,0.0,2.292037010192871,-0.8536577224731445,-0.7670041918754578,23.25,0.0,2.4737119674682617,-0.9906291961669922,-1.5340083837509155,18.5,0.0,3.024458885192871,-1.428365707397461,0.0,15.75,0.0,3.6731958389282227,-1.199483871459961,0.0,13.25,,,,,,,,,,,,,,,,,,,,,,,,,
0.0,-9.141399459622335e-06,2.355722188949585,-0.9421355128288269,-1.2330926438153256e-05,-1.043971300125122,-0.8882505893707275,4.496474502957426e-06,-0.7547960877418518,-0.545628547668457,0.0,2.001643180847168,-1.0017156600952148,-0.19175104796886444,25.75,0.0,2.4068355560302734,-1.1658668518066406,0.19175104796886444,20.75,0.0,2.498030662536621,-1.2767314910888672,-1.9175104796886444,12.75,0.0,2.1657943725585938,-0.9226799011230469,-0.19175104796886444,24.25,0.0,2.31170654296875,-1.0428428649902344,0.19175104796886444,23.25,0.0,3.0416250228881836,-1.409769058227539,0.0,14.75,0.0,2.9751062393188477,-1.190185546875,0.0,19.75,0.0,3.6603212356567383,-1.227736473083496,0.0,12.25,,,,,,,,,,,,,,,,,,,,,,,,,,,,,,,,,,,
0.0,-8.126827196974773e-06,2.2194972038269043,-1.0347949266433716,-8.821343726594932e-06,-1.181400179862976,-0.9309220910072327,6.4784680944285356e-06,-0.8367226123809814,-0.5205295085906982,0.0,2.169013023376465,-1.2177228927612305,-1.342257335782051,24.75,0.0,2.2716522216796875,-1.2903213500976562,-1.342257335782051,17.0,0.0,2.0166635513305664,-0.9319782257080078,-1.342257335782051,28.25,0.0,2.076387405395508,-1.0689496994018555,0.19175104796886444,27.0,0.0,1.9594430923461914,-0.880122184753418,-1.342257335782051,17.0,0.0,3.028750419616699,-1.4208555221557617,0.0,14.5,0.0,2.9039382934570312,-1.1208057403564453,0.0,21.75,0.0,2.9761791229248047,-1.1858940124511719,0.0,20.5,,,,,,,,,,,,,,,,,,,,,,,,,,,,,,,,,,,
0.0,-7.213658591354033e-06,2.083191394805908,-1.1215811967849731,-5.766135927842697e-06,-1.2842296361923218,-0.9675492644309998,8.018670087039936e-06,-0.8543163537979126,-0.50670325756073,0.0,1.9794702529907227,-1.1372566223144531,-0.7670041918754578,14.75,0.0,2.191901206970215,-1.3371706008911133,-0.7670041918754578,16.0,0.0,1.8303394317626953,-0.9026527404785156,-0.5752531439065933,17.75,0.0,1.8460750579833984,-0.9437799453735352,-0.5752531439065933,24.0,0.0,2.9658079147338867,-1.4948844909667969,0.0,14.25,0.0,2.8960704803466797,-1.141190528869629,0.0,21.75,0.0,2.951502799987793,-1.2431144714355469,0.0,20.5,,,,,,,,,,,,,,,,,,,,,,,,,,,,,,,,,,,,,,,,
0.0,-5.782638254459016e-06,2.017303943634033,-1.180821180343628,-2.3244099338626256e-06,-1.2640604972839355,-0.940947413444519,9.67813321040012e-06,-0.7571302056312561,-0.4358749985694885,0.0,1.7709732055664062,-1.2445449829101562,-0.19175104796886444,19.0,0.0,1.8982887268066406,-1.3450384140014648,-0.19175104796886444,17.0,0.0,2.0949840545654297,-1.4301538467407227,-0.3835020959377289,13.25,0.0,3.117799758911133,-0.7202625274658203,-1.5340083837509155,13.5,0.0,3.009796142578125,-0.44918060302734375,-1.5340083837509155,13.0,0.0,3.0759572982788086,-0.49245357513427734,-1.5340083837509155,17.0,0.0,2.102494239807129,-0.8400678634643555,0.0,31.0,,,,,,,,,,,,,,,,,,,,,,,,,,,,,,,,,,,,,,,,
0.0,-4.4296079977357294e-06,1.9148650169372559,-1.2611972093582153,6.97059704179992e-07,-1.256666660308838,-0.9887807369232178,1.095453535526758e-05,-0.6399020552635193,-0.4720698595046997,0.0,1.9440650939941406,-1.3636350631713867,-0.19175104796886444,19.75,0.0,2.0720958709716797,-1.3936758041381836,-0.7670041918754578,14.5,0.0,1.8514394760131836,-1.0356903076171875,0.19175104796886444,17.0,0.0,1.7827749252319336,-0.8161067962646484,0.3835020959377289,14.5,0.0,1.7734766006469727,-0.8304119110107422,0.19175104796886444,18.5,0.0,2.1010637283325195,-0.8296966552734375,0.0,31.0,,,,,,,,,,,,,,,,,,,,,,,,,,,,,,,,,,,,,,,,,,,,,
0.0,-3.347957317600958e-06,1.811000108718872,-1.3503978252410889,3.069379999942612e-06,-1.245092511177063,-1.0482583045959473,1.1746413292712532e-05,-0.5337933301925659,-0.516423761844635,0.0,1.7205476760864258,-1.1562108993530273,0.19175104796886444,18.0,0.0,1.7470121383666992,-1.232743263244629,0.19175104796886444,21.5,0.0,1.8543004989624023,-1.2584924697875977,0.19175104796886444,16.25,0.0,1.798868179321289,-0.7992982864379883,0.19175104796886444,12.5,0.0,2.100348472595215,-0.8289813995361328,0.0,30.75,,,,,,,,,,,,,,,,,,,,,,,,,,,,,,,,,,,,,,,,,,,,,,,,,,
0.0,-2.181035597459413e-06,1.7796931266784668,-1.3941848278045654,5.291452907840721e-06,-1.1216135025024414,-1.0001649856567383,1.2386097296257503e-05,-0.3562563359737396,-0.4419858455657959,0.0,2.124667167663574,-1.53350830078125,-0.19175104796886444,15.5,0.0,1.765608787536621,-0.994563102722168,-0.19175104796886444,15.0,0.0,1.862168312072754,-1.1175870895385742,-0.19175104796886444,18.75,0.0,2.119302749633789,-1.2073516845703125,-0.19175104796886444,20.75,0.0,2.1632909774780273,-1.335740089416504,-0.19175104796886444,22.75,0.0,1.9011497497558594,-0.9430646896362305,0.0,14.5,0.0,2.009868621826172,-0.9416341781616211,0.0,29.75,,,,,,,,,,,,,,,,,,,,,,,,,,,,,,,,,,,,,,,,
0.0,-1.134844978878391e-06,1.7416826486587524,-1.4289233684539795,7.12905966793187e-06,-0.9925082325935364,-0.9616167545318604,1.274766600545263e-05,-0.1715175211429596,-0.40413910150527954,0.0,1.8124580383300781,-1.3904571533203125,0.19175104796886444,12.5,0.0,2.1114349365234375,-1.3707876205444336,0.19175104796886444,13.25,0.0,1.7126798629760742,-1.0199546813964844,0.19175104796886444,14.25,0.0,1.7369985580444336,-1.0238885879516602,0.19175104796886444,19.0,0.0,1.7641782760620117,-1.0578632354736328,0.19175104796886444,21.25,0.0,1.8374919891357422,-0.985264778137207,0.0,15.25,,,,,,,,,,,,,,,,,,,,,,,,,,,,,,,,,,,,,,,,,,,,,
0.0,-2.6017622190011025e-07,1.7249388694763184,-1.4556297063827515,8.528601028956473e-06,-0.8446952104568481,-0.8967431783676147,1.2812651220883708e-05,-0.0015416145324707031,-0.3303251266479492,0.0,2.213716506958008,-1.2667179107666016,0.19175104796886444,12.25,0.0,1.7709732055664062,-0.9459257125854492,0.19175104796886444,13.75,0.0,1.856088638305664,-0.9684562683105469,0.19175104796886444,16.5,0.0,1.842498779296875,-0.9598731994628906,0.0,15.25,,,,,,,,,,,,,,,,,,,,,,,,,,,,,,,,,,,,,,,,,,,,,,,,,,,,,,,
0.0,5.578461923505529e-07,1.7611960172653198,-1.4519846439361572,9.675755791249685e-06,-0.6157206892967224,-0.7845209836959839,1.2711463568848558e-05,0.2250717729330063,-0.22178012132644653,0.0,2.029895782470703,-1.1841058731079102,0.19175104796886444,23.75,0.0,2.1293163299560547,-1.2252330780029297,0.19175104796886444,20.75,0.0,1.8253326416015625,-0.9502172470092773,0.19175104796886444,17.25,0.0,1.920461654663086,-1.0170936584472656,0.19175104796886444,24.25,0.0,1.8181800842285156,-1.006007194519043,0.0,15.5,,,,,,,,,,,,,,,,,,,,,,,,,,,,,,,,,,,,,,,,,,,,,,,,,,
0.0,-3.6213023690834234e-07,2.896888494491577,-0.45600342750549316,-6.034649118191737e-07,-0.4992108941078186,-0.12377524375915527,-2.5094017530591373e-08,-0.3710134029388428,0.003024950623512268,0.0,3.0984878540039062,-1.3736486434936523,-0.9587552398443222,13.75,0.0,3.0466318130493164,-1.1161565780639648,-0.5752531439065933,15.25,0.0,2.9500722885131836,-0.7892847061157227,-0.7670041918754578,19.25,0.0,2.816319465637207,-0.19168853759765625,-0.7670041918754578,23.75,0.0,2.7158260345458984,0.04291534423828125,-0.7670041918754578,28.0,0.0,2.5620460510253906,0.12803077697753906,-0.7670041918754578,18.5,0.0,2.657175064086914,0.1004934310913086,-0.7670041918754578,26.25,,,,,,,,,,,,,,,,,,,,,,,,,,,,,,,,,,,,,,,,
0.0,-3.079870793953887e-07,2.833889961242676,-0.47624289989471436,-4.5562768491436145e-07,-0.5986720323562622,-0.12884023785591125,7.063029983100932e-08,-0.4775606095790863,0.007707037031650543,0.0,3.03804874420166,-1.9022226333618164,-0.9587552398443222,13.5,0.0,3.099203109741211,-1.3779401779174805,-0.7670041918754578,15.0,0.0,2.886056900024414,-0.9874105453491211,-0.7670041918754578,18.5,0.0,2.961874008178711,-1.0256767272949219,-0.7670041918754578,22.0,0.0,3.046274185180664,-1.0256767272949219,-0.7670041918754578,18.0,0.0,2.4765729904174805,0.19812583923339844,-0.9587552398443222,15.5,0.0,2.5681257247924805,0.2199411392211914,-0.9587552398443222,18.5,0.0,2.683281898498535,0.1423358917236328,-0.9587552398443222,16.75,,,,,,,,,,,,,,,,,,,,,,,,,,,,,,,,,,,
0.0,-2.466426849423442e-07,2.717930316925049,-0.5230494141578674,-3.064856741730182e-07,-0.8145894408226013,-0.16979706287384033,1.6275564007628418e-07,-0.726798415184021,-0.007511865347623825,0.0,3.0351877212524414,-1.4423131942749023,-1.342257335782051,12.25,0.0,2.9364824295043945,-1.159071922302246,-1.342257335782051,17.25,0.0,2.76339054107666,-0.9977817535400391,-1.1505062878131866,25.25,0.0,2.8542280197143555,-1.0399818420410156,-1.1505062878131866,22.25,0.0,2.6525259017944336,-0.48601627349853516,-1.1505062878131866,25.5,0.0,2.535223960876465,-0.39374828338623047,-1.342257335782051,29.25,0.0,2.4776458740234375,-0.15985965728759766,-1.342257335782051,24.75,0.0,2.343893051147461,0.015020370483398438,-1.1505062878131866,19.5,,,,,,,,,,,,,,,,,,,,,,,,,,,,,,,,,,,
0.0,-1.9385160499041376e-07,2.591841220855713,-0.6577122211456299,-1.790170074400521e-07,-1.032283067703247,-0.36077046394348145,2.3540661686638487e-07,-0.9448156952857971,-0.15207260847091675,0.0,2.881765365600586,-1.3718605041503906,-1.72575943171978,17.75,0.0,3.0215978622436523,-1.4380216598510742,-1.72575943171978,14.0,0.0,2.545595169067383,-1.0421276092529297,-1.5340083837509155,24.25,0.0,2.715468406677246,-1.1265277862548828,-0.7670041918754578,24.0,0.0,2.803802490234375,-1.1851787567138672,-0.7670041918754578,20.75,0.0,2.2684335708618164,-0.6455183029174805,-1.342257335782051,21.5,0.0,2.364993095397949,-0.5829334259033203,-1.5340083837509155,27.75,0.0,2.439737319946289,-0.6051063537597656,-1.5340083837509155,27.0,0.0,3.2944679260253906,-1.3117790222167969,0.0,12.25,,,,,,,,,,,,,,,,,,,,,,,,,,,,,,
0.0,-1.4872856013425917e-07,2.487499475479126,-0.8557703495025635,-7.210237384924767e-08,-1.0921547412872314,-0.6836987733840942,2.888598942263343e-07,-0.8651360273361206,-0.44036558270454407,0.0,2.2748708724975586,-1.1186599731445312,-0.19175104796886444,23.5,0.0,2.4518966674804688,-1.3060569763183594,-0.5752531439065933,20.5,0.0,2.557039260864258,-1.3625621795654297,-0.5752531439065933,21.75,0.0,2.651095390319824,-1.4137029647827148,-0.5752531439065933,18.25,0.0,2.8613805770874023,-1.452326774597168,-0.7670041918754578,14.0,0.0,3.0530691146850586,-1.5535354614257812,-0.19175104796886444,12.5,0.0,2.1979808807373047,-0.8025169372558594,-0.19175104796886444,27.5,0.0,2.138972282409668,-0.6301403045654297,-1.342257335782051,26.5,,,,,,,,,,,,,,,,,,,,,,,,,,,,,,,,,,,
0.0,-1.1499925278712908e-07,2.363499879837036,-1.0554076433181763,1.131108362528721e-08,-1.1956537961959839,-0.9712721109390259,3.246803714773705e-07,-0.8688220381736755,-0.6647031307220459,0.0,2.136111259460449,-1.204848289489746,0.3835020959377289,24.75,0.0,2.2062063217163086,-1.3031959533691406,0.3835020959377289,24.25,0.0,2.3474693298339844,-1.3750791549682617,-1.9175104796886444,20.75,0.0,2.485513687133789,-1.4494657516479492,-1.9175104796886444,21.25,0.0,2.6139020919799805,-1.4895200729370117,-0.7670041918754578,18.0,0.0,2.783060073852539,-1.5860795974731445,-0.7670041918754578,13.75,0.0,2.0377635955810547,-1.0017156600952148,0.3835020959377289,19.75,,,,,,,,,,,,,,,,,,,,,,,,,,,,,,,,,,,,,,,,
0.0,-8.620759928135158e-08,2.226902484893799,-1.172912359237671,8.025240560982638e-08,-1.29702889919281,-1.075648546218872,3.489170694592758e-07,-0.8746089339256287,-0.7042545080184937,0.0,2.1189451217651367,-1.214146614074707,-0.5752531439065933,18.25,0.0,2.2226572036743164,-1.28173828125,-0.5752531439065933,17.75,0.0,2.2902488708496094,-1.383662223815918,-1.1505062878131866,15.0,0.0,1.7462968826293945,-0.8887052536010742,-0.19175104796886444,13.0,0.0,1.9172430038452148,-0.9570121765136719,-0.19175104796886444,15.5,0.0,2.5348663330078125,-1.3117790222167969,-0.5752531439065933,12.25,0.0,3.059506416320801,-1.3750791549682617,0.0,15.5,,,,,,,,,,,,,,,,,,,,,,,,,,,,,,,,,,,,,,,,
0.0,-1.5098962080628553e-08,3.1594502925872803,-0.1096387580037117,-5.748698583829537e-08,-0.4983331859111786,0.0042127761989831924,-4.2119328469425454e-08,-0.5756598114967346,-0.4357890784740448,0.0,3.123164176940918,-1.3475418090820312,-0.19175104796886444,17.5,0.0,3.1453371047973633,-0.767827033996582,-0.19175104796886444,19.0,0.0,3.045201301574707,-0.10907649993896484,-0.19175104796886444,22.25,0.0,2.971172332763672,0.08082389831542969,-0.3835020959377289,23.25,0.0,2.9071569442749023,0.15628337860107422,-0.3835020959377289,18.0,0.0,3.201127052307129,-0.1455545425415039,0.0,25.75,0.0,3.065943717956543,0.07545948028564453,0.0,27.25,0.0,3.094196319580078,0.05900859832763672,0.0,30.25,,,,,,,,,,,,,,,,,,,,,,,,,,,,,,,,,,,
0.0,-1.534944971126606e-08,3.1453962326049805,-0.23565782606601715,-5.525453161681071e-08,-0.45773905515670776,-0.24169176816940308,-3.832439787743169e-08,-0.4480302333831787,-0.6022622585296631,0.0,3.3473968505859375,-1.1773109436035156,-0.19175104796886444,15.5,0.0,3.2122135162353516,-0.7849931716918945,-0.19175104796886444,18.5,0.0,3.3223628997802734,-0.9516477584838867,-0.19175104796886444,20.25,0.0,3.038763999938965,-0.1666545867919922,-0.19175104796886444,20.5,0.0,2.9103755950927734,0.02574920654296875,-0.19175104796886444,17.75,0.0,2.9561519622802734,0.006079673767089844,-0.19175104796886444,23.0,0.0,3.312349319458008,-0.9341239929199219,0.0,26.0,0.0,3.404974937438965,-0.9942054748535156,0.0,19.5,0.0,3.211498260498047,-0.2968311309814453,0.0,26.5,0.0,3.0995607376098633,0.05543231964111328,0.0,30.0,,,,,,,,,,,,,,,,,,,,,,,,,
0.0,-1.495573798138139e-08,3.115344762802124,-0.2631480395793915,-5.201389186026972e-08,-0.44435229897499084,-0.3065279424190521,-3.409959248301675e-08,-0.36461079120635986,-0.6090724468231201,0.0,3.3627748489379883,-1.30462646484375,-0.19175104796886444,13.5,0.0,3.3273696899414062,-0.9126663208007812,-0.19175104796886444,14.5,0.0,3.130674362182617,-0.29969215393066406,-0.19175104796886444,18.0,0.0,3.2368898391723633,-0.3311634063720703,-0.19175104796886444,16.0,0.0,2.959012985229492,-0.1798868179321289,-0.19175104796886444,12.75,0.0,2.682924270629883,0.3973245620727539,-0.3835020959377289,13.25,0.0,2.6979446411132812,0.4423856735229492,-0.3835020959377289,17.5,0.0,3.3506155014038086,-1.124739646911621,0.0,18.5,0.0,3.2279491424560547,-0.32007694244384766,0.0,26.5,0.0,3.0995607376098633,0.08296966552734375,0.0,29.75,,,,,,,,,,,,,,,,,,,,,,,,,
0.0,-1.5995439639482356e-08,3.064009666442871,-0.23585711419582367,-5.030679162132401e-08,-0.45129162073135376,-0.27113690972328186,-3.101246548453673e-08,-0.3028983473777771,-0.5326406359672546,0.0,3.1349658966064453,-0.6476640701293945,-0.19175104796886444,17.5,0.0,3.048062324523926,-0.30291080474853516,-0.19175104796886444,20.25,0.0,2.88999080657959,0.03325939178466797,-0.19175104796886444,22.25,0.0,2.776980400085449,0.2263784408569336,-0.19175104796886444,23.5,0.0,2.7097463607788086,0.29647350311279297,-0.19175104796886444,18.5,0.0,3.208279609680176,-0.4559755325317383,0.0,26.25,0.0,3.0999183654785156,0.06759166717529297,0.0,29.75,,,,,,,,,,,,,,,,,,,,,,,,,,,,,,,,,,,,,,,,
0.0,-1.530309745589875e-08,3.0433802604675293,-0.31169331073760986,-4.629285044188691e-08,-0.41399919986724854,-0.40638136863708496,-2.6647228423826164e-08,-0.21126475930213928,-0.6041991114616394,0.0,3.2733678817749023,-1.0006427764892578,-0.19175104796886444,19.5,0.0,3.3556222915649414,-1.0149478912353516,-0.19175104796886444,14.5,0.0,3.1707286834716797,-0.9201765060424805,-0.19175104796886444,21.0,0.0,3.037691116333008,-0.36907196044921875,-0.19175104796886444,21.25,0.0,2.8384923934936523,0.08404254913330078,-0.19175104796886444,22.75,0.0,2.9010772705078125,-0.06186962127685547,-0.19175104796886444,24.0,0.0,2.7437210083007812,0.1938343048095703,-0.19175104796886444,15.25,0.0,3.2172203063964844,-0.41091442108154297,0.0,26.75,0.0,3.105640411376953,0.042557716369628906,0.0,29.5,,,,,,,,,,,,,,,,,,,,,,,,,,,,,,
