frameData,frameData_error,frameData_frameNum,frameData_numDetectedPoints,frameData_numDetectedTracks,frameData_trackIndexes,stamp_button_pressed,timestamp,tid,posX,posY,posZ,velX,velY,velZ,accX,accY,accZ,pointx1,pointy1,pointz1,doppler1,snr1,pointx2,pointy2,pointz2,doppler2,snr2,pointx3,pointy3,pointz3,doppler3,snr3,pointx4,pointy4,pointz4,doppler4,snr4,pointx5,pointy5,pointz5,doppler5,snr5,pointx6,pointy6,pointz6,doppler6,snr6,pointx7,pointy7,pointz7,doppler7,snr7,pointx8,pointy8,pointz8,doppler8,snr8,pointx9,pointy9,pointz9,doppler9,snr9,pointx10,pointy10,pointz10,doppler10,snr10,pointx11,pointy11,pointz11,doppler11,snr11,pointx12,pointy12,pointz12,doppler12,snr12
"{'error': 0, 'frameNum': 412, 'pointCloud': [[-1.4719963073730469, 3.2393932342529297, 0.0, -0.3835020959377289, 18.75, 67.0, 255.0], [-1.5642642974853516, 3.336310386657715, 0.0, -0.3835020959377289, 12.75, 66.0, 255.0], [-1.0925531387329102, 3.156423568725586, 0.0, -0.7670041918754578, 23.0, 65.0, 255.0], [-1.1926889419555664, 3.2411813735961914, 0.0, -0.7670041918754578, 21.0, 68.0, 255.0], [-0.08082389831542969, 2.9751062393188477, 0.0, -0.9587552398443222, 22.75, 66.0, 255.0], [0.1691579818725586, 2.76947021484375, 0.0, -0.9587552398443222, 20.0, 66.0, 255.0], [0.12624263763427734, 2.8356313705444336, 0.0, -0.9587552398443222, 28.75, 66.0, 255.0], [0.10192394256591797, 2.8628110885620117, 0.0, -0.9587552398443222, 29.25, 66.0, 255.0]], 'numDetectedPoints': 8, 'numDetectedTracks': 1, 'trackData': [[0.0, -0.23663631081581116, 2.9879539012908936, 0.00260344659909606, -0.05206583812832832, -0.6029782295227051, -0.09530086815357208, 0.07462381571531296, -0.7825573086738586, -0.020033681765198708, 3.0, 0.946855902671814, 8.243910418263e-312, 8.243910418263e-312, 8.243910427275e-312, 8.243910427275e-312]], 'trackIndexes': [255.0, 255.0, 0.0, 0.0, 0.0, 0.0, 0.0, 0.0]}",0,412,8,1,"[255.0, 255.0, 0.0, 0.0, 0.0, 0.0, 0.0, 0.0]",True,1754507375759.8752,0.0,0.00260344659909606,2.9879539012908936,-0.23663631081581116,-0.09530086815357208,-0.6029782295227051,-0.05206583812832832,-0.020033681765198708,-0.7825573086738586,0.07462381571531296,0.0,3.2393932342529297,-1.4719963073730469,-0.3835020959377289,18.75,0.0,3.336310386657715,-1.5642642974853516,-0.3835020959377289,12.75,0.0,3.156423568725586,-1.0925531387329102,-0.7670041918754578,23.0,0.0,3.2411813735961914,-1.1926889419555664,-0.7670041918754578,21.0,0.0,2.9751062393188477,-0.08082389831542969,-0.9587552398443222,22.75,0.0,2.76947021484375,0.1691579818725586,-0.9587552398443222,20.0,0.0,2.8356313705444336,0.12624263763427734,-0.9587552398443222,28.75,0.0,2.8628110885620117,0.10192394256591797,-0.9587552398443222,29.25,,,,,,,,,,,,,,,,,,,,
"{'error': 0, 'frameNum': 413, 'pointCloud': [[-0.8647441864013672, 3.1474828720092773, 0.0, -0.9587552398443222, 18.25, 67.0, 255.0], [-0.905156135559082, 3.2622814178466797, 0.0, -0.5752531439065933, 13.75, 68.0, 255.0], [-0.5822181701660156, 2.980828285217285, 0.0, -0.5752531439065933, 18.75, 66.0, 255.0], [0.04291534423828125, 2.8063058853149414, 0.0, -1.1505062878131866, 26.0, 66.0, 255.0], [0.1323223114013672, 2.7211904525756836, 0.0, -1.1505062878131866, 24.75, 66.0, 255.0], [0.0947713851928711, 2.7573108673095703, 0.0, -1.1505062878131866, 29.0, 67.0, 255.0]], 'numDetectedPoints': 6, 'numDetectedTracks': 1, 'trackData': [[0.0, -0.22889967262744904, 2.8994405269622803, -0.003113169688731432, -0.013885241001844406, -0.7875235676765442, -0.08887477219104767, 0.11237484961748123, -0.9992506504058838, -0.011914286762475967, 3.0, 0.9521703124046326, 8.243910418263e-312, 8.243910418263e-312, 8.243910427275e-312, 8.243910427275e-312]], 'trackIndexes': [0.0, 0.0, 0.0, 0.0, 0.0, 0.0]}",0,413,6,1,"[0.0, 0.0, 0.0, 0.0, 0.0, 0.0]",,1754507375855.5554,0.0,-0.003113169688731432,2.8994405269622803,-0.22889967262744904,-0.08887477219104767,-0.7875235676765442,-0.013885241001844406,-0.011914286762475967,-0.9992506504058838,0.11237484961748123,0.0,3.1474828720092773,-0.8647441864013672,-0.9587552398443222,18.25,0.0,3.2622814178466797,-0.905156135559082,-0.5752531439065933,13.75,0.0,2.980828285217285,-0.5822181701660156,-0.5752531439065933,18.75,0.0,2.8063058853149414,0.04291534423828125,-1.1505062878131866,26.0,0.0,2.7211904525756836,0.1323223114013672,-1.1505062878131866,24.75,0.0,2.7573108673095703,0.0947713851928711,-1.1505062878131866,29.0,,,,,,,,,,,,,,,,,,,,,,,,,,,,,,
"{'error': 0, 'frameNum': 414, 'pointCloud': [[-1.9297599792480469, 3.18145751953125, 0.0, -0.9587552398443222, 12.5, 66.0, 255.0], [-1.512765884399414, 3.099203109741211, 0.0, -0.5752531439065933, 18.5, 67.0, 255.0], [-1.6644001007080078, 3.1614303588867188, 0.0, -0.5752531439065933, 17.0, 66.0, 255.0], [-1.1394023895263672, 3.0927658081054688, 0.0, -0.5752531439065933, 17.5, 69.0, 255.0], [-0.7581710815429688, 2.845287322998047, 0.0, -1.5340083837509155, 16.25, 66.0, 255.0], [-0.8482933044433594, 3.0426979064941406, 0.0, -0.7670041918754578, 19.0, 66.0, 255.0], [0.05936622619628906, 2.6482343673706055, 0.0, -1.342257335782051, 20.75, 66.0, 255.0], [0.13554096221923828, 2.5309324264526367, 0.0, -1.342257335782051, 17.75, 66.0, 255.0], [0.08404254913330078, 2.5910139083862305, 0.0, -1.342257335782051, 23.0, 66.0, 255.0], [-0.4538297653198242, 3.1957626342773438, 0.0, 0.0, 20.0, 71.0, 255.0]], 'numDetectedPoints': 10, 'numDetectedTracks': 1, 'trackData': [[0.0, -0.26636871695518494, 2.7920870780944824, -0.006669703871011734, -0.0681411549448967, -0.9840649962425232, -0.07858218997716904, 0.06312408298254013, -1.1807358264923096, -3.142654895782471e-05, 3.0, 0.9569532871246338, 8.243910418263e-312, 8.243910418263e-312, 8.243910427275e-312, 8.243910427275e-312]], 'trackIndexes': [255.0, 255.0, 255.0, 0.0, 0.0, 0.0, 0.0, 0.0, 0.0, 0.0]}",0,414,10,1,"[255.0, 255.0, 255.0, 0.0, 0.0, 0.0, 0.0, 0.0, 0.0, 0.0]",,1754507375949.3076,0.0,-0.006669703871011734,2.7920870780944824,-0.26636871695518494,-0.07858218997716904,-0.9840649962425232,-0.0681411549448967,-3.142654895782471e-05,-1.1807358264923096,0.06312408298254013,0.0,3.18145751953125,-1.9297599792480469,-0.9587552398443222,12.5,0.0,3.099203109741211,-1.512765884399414,-0.5752531439065933,18.5,0.0,3.1614303588867188,-1.6644001007080078,-0.5752531439065933,17.0,0.0,3.0927658081054688,-1.1394023895263672,-0.5752531439065933,17.5,0.0,2.845287322998047,-0.7581710815429688,-1.5340083837509155,16.25,0.0,3.0426979064941406,-0.8482933044433594,-0.7670041918754578,19.0,0.0,2.6482343673706055,0.05936622619628906,-1.342257335782051,20.75,0.0,2.5309324264526367,0.13554096221923828,-1.342257335782051,17.75,0.0,2.5910139083862305,0.08404254913330078,-1.342257335782051,23.0,0.0,3.1957626342773438,-0.4538297653198242,0.0,20.0,,,,,,,,,,
"{'error': 0, 'frameNum': 415, 'pointCloud': [[-1.5431642532348633, 3.051280975341797, 0.0, -0.9587552398443222, 20.25, 67.0, 255.0], [-1.6132593154907227, 3.16464900970459, 0.0, -0.9587552398443222, 17.0, 67.0, 255.0], [-1.1744499206542969, 2.9064416885375977, 0.0, -1.342257335782051, 19.75, 69.0, 255.0], [-1.3489723205566406, 2.983689308166504, 0.0, -1.342257335782051, 20.5, 68.0, 255.0], [-0.972747802734375, 2.780914306640625, 0.0, -1.5340083837509155, 20.75, 66.0, 255.0], [-0.38373470306396484, 2.6417970657348633, 0.0, -1.342257335782051, 22.75, 66.0, 255.0], [0.037550926208496094, 2.4254322052001953, 0.0, -1.72575943171978, 26.75, 66.0, 255.0], [-0.04184246063232422, 2.504110336303711, 0.0, -1.342257335782051, 26.0, 66.0, 255.0], [0.08726119995117188, 2.3546218872070312, 0.0, -1.72575943171978, 21.5, 66.0, 255.0]], 'numDetectedPoints': 9, 'numDetectedTracks': 1, 'trackData': [[0.0, -0.331890344619751, 2.650902509689331, -0.00749999238178134, -0.16521063446998596, -1.2515608072280884, -0.06240193545818329, -0.02067018300294876, -1.448870301246643, 0.018616165965795517, 3.0, 0.9612579345703125, 8.243910418263e-312, 8.243910418263e-312, 8.243910427275e-312, 8.243910427275e-312]], 'trackIndexes': [255.0, 255.0, 0.0, 0.0, 0.0, 0.0, 0.0, 0.0, 0.0]}",0,415,9,1,"[255.0, 255.0, 0.0, 0.0, 0.0, 0.0, 0.0, 0.0, 0.0]",,1754507376060.4702,0.0,-0.00749999238178134,2.650902509689331,-0.331890344619751,-0.06240193545818329,-1.2515608072280884,-0.16521063446998596,0.018616165965795517,-1.448870301246643,-0.02067018300294876,0.0,3.051280975341797,-1.5431642532348633,-0.9587552398443222,20.25,0.0,3.16464900970459,-1.6132593154907227,-0.9587552398443222,17.0,0.0,2.9064416885375977,-1.1744499206542969,-1.342257335782051,19.75,0.0,2.983689308166504,-1.3489723205566406,-1.342257335782051,20.5,0.0,2.780914306640625,-0.972747802734375,-1.5340083837509155,20.75,0.0,2.6417970657348633,-0.38373470306396484,-1.342257335782051,22.75,0.0,2.4254322052001953,0.037550926208496094,-1.72575943171978,26.75,0.0,2.504110336303711,-0.04184246063232422,-1.342257335782051,26.0,0.0,2.3546218872070312,0.08726119995117188,-1.72575943171978,21.5,,,,,,,,,,,,,,,
"{'error': 0, 'frameNum': 416, 'pointCloud': [[-1.6461610794067383, 2.9386281967163086, 0.0, -2.109261527657509, 16.25, 67.0, 255.0], [-1.5635490417480469, 3.0788183212280273, 0.0, -2.109261527657509, 17.75, 67.0, 255.0], [-1.466989517211914, 3.2215118408203125, 0.0, -1.342257335782051, 14.0, 67.0, 255.0], [-1.028895378112793, 2.7036666870117188, 0.0, -1.72575943171978, 13.25, 67.0, 255.0], [-0.6312131881713867, 2.6056766510009766, 0.0, -1.72575943171978, 15.75, 66.0, 255.0], [-0.4062652587890625, 2.295970916748047, 0.0, -1.72575943171978, 17.5, 66.0, 255.0], [-0.4495382308959961, 2.4633407592773438, 0.0, -1.72575943171978, 18.75, 66.0, 255.0], [-0.35440921783447266, 2.3682117462158203, 0.0, -1.72575943171978, 20.75, 66.0, 255.0]], 'numDetectedPoints': 8, 'numDetectedTracks': 1, 'trackData': [[0.0, -0.5188066959381104, 2.491898775100708, -0.00667679263278842, -0.4886772632598877, -1.5671577453613281, -0.0427599772810936, -0.3270311653614044, -1.7802258729934692, 0.040291398763656616, 3.0, 0.9651321172714233, 8.243910418263e-312, 8.243910418263e-312, 8.243910427275e-312, 8.243910427275e-312]], 'trackIndexes': [0.0, 0.0, 0.0, 0.0, 0.0, 0.0, 0.0, 0.0]}",0,416,8,1,"[0.0, 0.0, 0.0, 0.0, 0.0, 0.0, 0.0, 0.0]",,1754507376160.0508,0.0,-0.00667679263278842,2.491898775100708,-0.5188066959381104,-0.0427599772810936,-1.5671577453613281,-0.4886772632598877,0.040291398763656616,-1.7802258729934692,-0.3270311653614044,0.0,2.9386281967163086,-1.6461610794067383,-2.109261527657509,16.25,0.0,3.0788183212280273,-1.5635490417480469,-2.109261527657509,17.75,0.0,3.2215118408203125,-1.466989517211914,-1.342257335782051,14.0,0.0,2.7036666870117188,-1.028895378112793,-1.72575943171978,13.25,0.0,2.6056766510009766,-0.6312131881713867,-1.72575943171978,15.75,0.0,2.295970916748047,-0.4062652587890625,-1.72575943171978,17.5,0.0,2.4633407592773438,-0.4495382308959961,-1.72575943171978,18.75,0.0,2.3682117462158203,-0.35440921783447266,-1.72575943171978,20.75,,,,,,,,,,,,,,,,,,,,
"{'error': 0, 'frameNum': 417, 'pointCloud': [[-1.477360725402832, 2.562403678894043, 0.0, -2.684514671564102, 17.0, 69.0, 255.0], [-1.5156269073486328, 2.682209014892578, 0.0, -2.4927636235952377, 17.5, 68.0, 255.0], [-1.4165639877319336, 2.920389175415039, 0.0, -2.4927636235952377, 16.0, 67.0, 255.0], [-1.4058351516723633, 3.1042098999023438, 0.0, -0.19175104796886444, 14.5, 67.0, 255.0], [-1.118302345275879, 2.534151077270508, 0.0, -2.684514671564102, 14.0, 69.0, 255.0], [-0.7971525192260742, 2.3653507232666016, 0.0, -1.1505062878131866, 17.5, 66.0, 255.0], [-0.5872249603271484, 2.214789390563965, 0.0, -1.1505062878131866, 22.5, 66.0, 255.0], [-0.40268898010253906, 2.141118049621582, 0.0, -1.5340083837509155, 25.25, 66.0, 255.0], [-0.3161430358886719, 2.083897590637207, 0.0, -1.342257335782051, 12.75, 77.0, 255.0], [-0.37086009979248047, 3.041982650756836, 0.0, 0.0, 17.25, 72.0, 255.0]], 'numDetectedPoints': 10, 'numDetectedTracks': 1, 'trackData': [[0.0, -0.645362377166748, 2.3068349361419678, -0.005831959191709757, -0.6374673843383789, -1.8650383949279785, -0.025725960731506348, -0.4085691571235657, -2.004235029220581, 0.055854231119155884, 3.0, 0.9686189293861389, 8.243910418263e-312, 8.243910418263e-312, 8.243910427275e-312, 8.243910427275e-312]], 'trackIndexes': [0.0, 0.0, 0.0, 255.0, 0.0, 0.0, 0.0, 0.0, 0.0, 0.0]}",0,417,10,1,"[0.0, 0.0, 0.0, 255.0, 0.0, 0.0, 0.0, 0.0, 0.0, 0.0]",,1754507376260.607,0.0,-0.005831959191709757,2.3068349361419678,-0.645362377166748,-0.025725960731506348,-1.8650383949279785,-0.6374673843383789,0.055854231119155884,-2.004235029220581,-0.4085691571235657,0.0,2.562403678894043,-1.477360725402832,-2.684514671564102,17.0,0.0,2.682209014892578,-1.5156269073486328,-2.4927636235952377,17.5,0.0,2.920389175415039,-1.4165639877319336,-2.4927636235952377,16.0,0.0,3.1042098999023438,-1.4058351516723633,-0.19175104796886444,14.5,0.0,2.534151077270508,-1.118302345275879,-2.684514671564102,14.0,0.0,2.3653507232666016,-0.7971525192260742,-1.1505062878131866,17.5,0.0,2.214789390563965,-0.5872249603271484,-1.1505062878131866,22.5,0.0,2.141118049621582,-0.40268898010253906,-1.5340083837509155,25.25,0.0,2.083897590637207,-0.3161430358886719,-1.342257335782051,12.75,0.0,3.041982650756836,-0.37086009979248047,0.0,17.25,,,,,,,,,,
"{'error': 0, 'frameNum': 418, 'pointCloud': [[-1.4605522155761719, 2.2230148315429688, 0.0, -2.3010125756263733, 12.75, 70.0, 255.0], [-1.2888908386230469, 2.1425485610961914, 0.0, -2.3010125756263733, 19.5, 67.0, 255.0], [-1.049637794494629, 2.12860107421875, 0.0, -0.19175104796886444, 22.75, 65.0, 255.0], [-0.8783340454101562, 2.0395517349243164, 0.0, -0.19175104796886444, 22.0, 65.0, 255.0], [-0.66375732421875, 3.005504608154297, 0.0, 0.0, 15.25, 73.0, 255.0]], 'numDetectedPoints': 5, 'numDetectedTracks': 1, 'trackData': [[0.0, -0.8223473429679871, 2.1017379760742188, -0.005751137621700764, -0.9479501247406006, -2.0856635570526123, -0.014937318861484528, -0.7192764282226562, -2.0210094451904297, 0.06124478951096535, 3.0, 0.9717570543289185, 8.243910418263e-312, 8.243910418263e-312, 8.243910427275e-312, 8.243910427275e-312]], 'trackIndexes': [0.0, 0.0, 0.0, 0.0, 0.0]}",0,418,5,1,"[0.0, 0.0, 0.0, 0.0, 0.0]",,1754507376359.907,0.0,-0.005751137621700764,2.1017379760742188,-0.8223473429679871,-0.014937318861484528,-2.0856635570526123,-0.9479501247406006,0.06124478951096535,-2.0210094451904297,-0.7192764282226562,0.0,2.2230148315429688,-1.4605522155761719,-2.3010125756263733,12.75,0.0,2.1425485610961914,-1.2888908386230469,-2.3010125756263733,19.5,0.0,2.12860107421875,-1.049637794494629,-0.19175104796886444,22.75,0.0,2.0395517349243164,-0.8783340454101562,-0.19175104796886444,22.0,0.0,3.005504608154297,-0.66375732421875,0.0,15.25,,,,,,,,,,,,,,,,,,,,,,,,,,,,,,,,,,,
"{'error': 0, 'frameNum': 419, 'pointCloud': [[-1.360774040222168, 1.7412900924682617, 0.0, -0.5752531439065933, 25.25, 65.0, 255.0], [-1.4165639877319336, 1.8031597137451172, 0.0, -0.9587552398443222, 22.5, 66.0, 255.0], [-1.1143684387207031, 1.684427261352539, 0.0, 0.19175104796886444, 14.5, 73.0, 255.0], [-0.9344816207885742, 1.5943050384521484, 0.0, 0.19175104796886444, 14.5, 75.0, 255.0], [-1.4805793762207031, 3.1102895736694336, 0.0, 0.0, 19.25, 70.0, 255.0], [-1.6450881958007812, 3.1446218490600586, 0.0, 0.0, 16.5, 69.0, 255.0], [-0.7263422012329102, 3.011941909790039, 0.0, 0.0, 15.0, 73.0, 255.0]], 'numDetectedPoints': 7, 'numDetectedTracks': 1, 'trackData': [[0.0, -1.083559274673462, 1.8577642440795898, -0.004636879079043865, -1.4428664445877075, -2.3208744525909424, -0.0039116195403039455, -1.210191011428833, -2.026561975479126, 0.06607582420110703, 3.0, 0.9745813608169556, 8.243910418263e-312, 8.243910418263e-312, 8.243910427275e-312, 8.243910427275e-312]], 'trackIndexes': [0.0, 0.0, 0.0, 0.0, 255.0, 255.0, 255.0]}",0,419,7,1,"[0.0, 0.0, 0.0, 0.0, 255.0, 255.0, 255.0]",,1754507376460.0386,0.0,-0.004636879079043865,1.8577642440795898,-1.083559274673462,-0.0039116195403039455,-2.3208744525909424,-1.4428664445877075,0.06607582420110703,-2.026561975479126,-1.210191011428833,0.0,1.7412900924682617,-1.360774040222168,-0.5752531439065933,25.25,0.0,1.8031597137451172,-1.4165639877319336,-0.9587552398443222,22.5,0.0,1.684427261352539,-1.1143684387207031,0.19175104796886444,14.5,0.0,1.5943050384521484,-0.9344816207885742,0.19175104796886444,14.5,0.0,3.1102895736694336,-1.4805793762207031,0.0,19.25,0.0,3.1446218490600586,-1.6450881958007812,0.0,16.5,0.0,3.011941909790039,-0.7263422012329102,0.0,15.0,,,,,,,,,,,,,,,,,,,,,,,,,
"{'error': 0, 'frameNum': 551, 'pointCloud': [[-1.910090446472168, 3.546595573425293, 0.0, -0.3835020959377289, 13.5, 66.0, 255.0], [-1.341104507446289, 3.5791397094726562, 0.0, -0.3835020959377289, 14.0, 67.0, 255.0], [-0.7849931716918945, 3.543734550476074, 0.0, -0.5752531439065933, 16.25, 66.0, 255.0], [-0.44918060302734375, 3.37064266204834, 0.0, -0.3835020959377289, 17.75, 65.0, 255.0], [0.031113624572753906, 3.1832456588745117, 0.0, -0.3835020959377289, 23.0, 65.0, 255.0], [-0.08404254913330078, 3.2318830490112305, 0.0, -0.3835020959377289, 23.0, 65.0, 255.0], [0.1627206802368164, 3.104567527770996, 0.0, -0.7670041918754578, 16.25, 65.0, 255.0], [-1.3850927352905273, 3.519415855407715, 0.0, 0.0, 23.25, 65.0, 255.0], [-0.994563102722168, 3.5158395767211914, 0.0, 0.0, 25.25, 65.0, 255.0], [-0.08797645568847656, 3.4328699111938477, 0.0, 0.0, 25.25, 65.0, 255.0]], 'numDetectedPoints': 10, 'numDetectedTracks': 1, 'trackData': [[0.0, -0.3050626218318939, 3.3160150051116943, -1.5956426068441942e-05, -0.31043893098831177, -0.3283238112926483, -4.4000946218147874e-05, -0.20728659629821777, -0.27311164140701294, -9.184081136481836e-06, 3.0, 0.9998231530189514, 0.0, 0.0, 0.0, 0.0]], 'trackIndexes': [255.0, 0.0, 0.0, 0.0, 0.0, 0.0, 0.0, 0.0, 0.0, 0.0]}",0,551,10,1,"[255.0, 0.0, 0.0, 0.0, 0.0, 0.0, 0.0, 0.0, 0.0, 0.0]",True,1754507389655.6196,0.0,-1.5956426068441942e-05,3.3160150051116943,-0.3050626218318939,-4.4000946218147874e-05,-0.3283238112926483,-0.31043893098831177,-9.184081136481836e-06,-0.27311164140701294,-0.20728659629821777,0.0,3.546595573425293,-1.910090446472168,-0.3835020959377289,13.5,0.0,3.5791397094726562,-1.341104507446289,-0.3835020959377289,14.0,0.0,3.543734550476074,-0.7849931716918945,-0.5752531439065933,16.25,0.0,3.37064266204834,-0.44918060302734375,-0.3835020959377289,17.75,0.0,3.1832456588745117,0.031113624572753906,-0.3835020959377289,23.0,0.0,3.2318830490112305,-0.08404254913330078,-0.3835020959377289,23.0,0.0,3.104567527770996,0.1627206802368164,-0.7670041918754578,16.25,0.0,3.519415855407715,-1.3850927352905273,0.0,23.25,0.0,3.5158395767211914,-0.994563102722168,0.0,25.25,0.0,3.4328699111938477,-0.08797645568847656,0.0,25.25,,,,,,,,,,
"{'error': 0, 'frameNum': 552, 'pointCloud': [[-1.1605024337768555, 3.432154655456543, 0.0, -0.9587552398443222, 23.25, 66.0, 255.0], [-1.2602806091308594, 3.4836530685424805, 0.0, -0.5752531439065933, 18.0, 66.0, 255.0], [-0.9766817092895508, 3.380298614501953, 0.0, -0.3835020959377289, 23.25, 65.0, 255.0], [-0.15485286712646484, 3.2411813735961914, 0.0, -0.3835020959377289, 21.75, 65.0, 255.0], [0.1659393310546875, 3.056645393371582, 0.0, -0.7670041918754578, 21.75, 66.0, 255.0], [0.10013580322265625, 3.1006336212158203, 0.0, -0.7670041918754578, 25.0, 65.0, 255.0], [-1.397252082824707, 3.50797176361084, 0.0, 0.0, 21.0, 68.0, 255.0], [-1.1036396026611328, 3.4765005111694336, 0.0, 0.0, 25.25, 66.0, 255.0], [-0.2878904342651367, 3.425717353820801, 0.0, 0.0, 25.5, 65.0, 255.0], [0.2117156982421875, 3.0791759490966797, 0.0, 0.0, 19.25, 66.0, 255.0]], 'numDetectedPoints': 10, 'numDetectedTracks': 1, 'trackData': [[0.0, -0.37762242555618286, 3.2654929161071777, -1.5036057448014617e-05, -0.3869723975658417, -0.43386441469192505, -3.875359834637493e-05, -0.2437678724527359, -0.40004998445510864, -5.791926014353521e-06, 3.0, 0.9998408555984497, 0.0, 0.0, 0.0, 0.0]], 'trackIndexes': [0.0, 0.0, 0.0, 0.0, 0.0, 0.0, 0.0, 0.0, 0.0, 0.0]}",0,552,10,1,"[0.0, 0.0, 0.0, 0.0, 0.0, 0.0, 0.0, 0.0, 0.0, 0.0]",,1754507389747.3225,0.0,-1.5036057448014617e-05,3.2654929161071777,-0.37762242555618286,-3.875359834637493e-05,-0.43386441469192505,-0.3869723975658417,-5.791926014353521e-06,-0.40004998445510864,-0.2437678724527359,0.0,3.432154655456543,-1.1605024337768555,-0.9587552398443222,23.25,0.0,3.4836530685424805,-1.2602806091308594,-0.5752531439065933,18.0,0.0,3.380298614501953,-0.9766817092895508,-0.3835020959377289,23.25,0.0,3.2411813735961914,-0.15485286712646484,-0.3835020959377289,21.75,0.0,3.056645393371582,0.1659393310546875,-0.7670041918754578,21.75,0.0,3.1006336212158203,0.10013580322265625,-0.7670041918754578,25.0,0.0,3.50797176361084,-1.397252082824707,0.0,21.0,0.0,3.4765005111694336,-1.1036396026611328,0.0,25.25,0.0,3.425717353820801,-0.2878904342651367,0.0,25.5,0.0,3.0791759490966797,0.2117156982421875,0.0,19.25,,,,,,,,,,
"{'error': 0, 'frameNum': 553, 'pointCloud': [[-1.3911724090576172, 3.483295440673828, 0.0, -0.7670041918754578, 14.25, 67.0, 255.0], [-1.026749610900879, 3.45611572265625, 0.0, -0.7670041918754578, 18.25, 66.0, 255.0], [-0.5829334259033203, 3.4128427505493164, 0.0, -0.7670041918754578, 20.75, 66.0, 255.0], [-0.41556358337402344, 3.279447555541992, 0.0, -0.7670041918754578, 20.25, 66.0, 255.0], [-0.1112222671508789, 3.061652183532715, 0.0, -0.7670041918754578, 17.0, 66.0, 255.0], [-0.09870529174804688, 3.1381845474243164, 0.0, -0.7670041918754578, 20.25, 66.0, 255.0], [-1.8761157989501953, 3.5648345947265625, 0.0, 0.0, 15.25, 69.0, 255.0], [-1.3865232467651367, 3.505110740661621, 0.0, 0.0, 21.0, 68.0, 255.0], [-1.0979175567626953, 3.484368324279785, 0.0, 0.0, 25.5, 65.0, 255.0], [-0.6154775619506836, 3.438234329223633, 0.0, 0.0, 24.5, 65.0, 255.0]], 'numDetectedPoints': 10, 'numDetectedTracks': 1, 'trackData': [[0.0, -0.4442223906517029, 3.213937759399414, -1.4110866686678492e-05, -0.44132769107818604, -0.5442192554473877, -3.372957871761173e-05, -0.25655683875083923, -0.5273397564888, -2.6642446755431592e-06, 3.0, 0.9998567700386047, 0.0, 0.0, 0.0, 0.0]], 'trackIndexes': [0.0, 0.0, 0.0, 0.0, 0.0, 0.0, 255.0, 0.0, 0.0, 0.0]}",0,553,10,1,"[0.0, 0.0, 0.0, 0.0, 0.0, 0.0, 255.0, 0.0, 0.0, 0.0]",,1754507389853.9246,0.0,-1.4110866686678492e-05,3.213937759399414,-0.4442223906517029,-3.372957871761173e-05,-0.5442192554473877,-0.44132769107818604,-2.6642446755431592e-06,-0.5273397564888,-0.25655683875083923,0.0,3.483295440673828,-1.3911724090576172,-0.7670041918754578,14.25,0.0,3.45611572265625,-1.026749610900879,-0.7670041918754578,18.25,0.0,3.4128427505493164,-0.5829334259033203,-0.7670041918754578,20.75,0.0,3.279447555541992,-0.41556358337402344,-0.7670041918754578,20.25,0.0,3.061652183532715,-0.1112222671508789,-0.7670041918754578,17.0,0.0,3.1381845474243164,-0.09870529174804688,-0.7670041918754578,20.25,0.0,3.5648345947265625,-1.8761157989501953,0.0,15.25,0.0,3.505110740661621,-1.3865232467651367,0.0,21.0,0.0,3.484368324279785,-1.0979175567626953,0.0,25.5,0.0,3.438234329223633,-0.6154775619506836,0.0,24.5,,,,,,,,,,
"{'error': 0, 'frameNum': 554, 'pointCloud': [[-1.2867450714111328, 3.0444860458374023, 0.0, -1.1505062878131866, 19.5, 65.0, 255.0], [-1.3554096221923828, 3.1539201736450195, 0.0, -1.1505062878131866, 17.0, 65.0, 255.0], [-1.394033432006836, 3.3277273178100586, 0.0, -1.1505062878131866, 13.5, 67.0, 255.0], [-0.23317337036132812, 3.035902976989746, 0.0, -0.9587552398443222, 18.0, 66.0, 255.0], [0.102996826171875, 2.857804298400879, 0.0, -1.1505062878131866, 19.25, 66.0, 255.0], [0.10120868682861328, 2.903580665588379, 0.0, -1.1505062878131866, 21.25, 66.0, 255.0], [-1.615762710571289, 3.690004348754883, 0.0, 0.0, 13.75, 69.0, 255.0], [-1.1025667190551758, 3.477931022644043, 0.0, 0.0, 23.25, 68.0, 255.0], [-1.2402534484863281, 3.5390853881835938, 0.0, 0.0, 19.0, 69.0, 255.0], [-0.7492303848266602, 3.4085512161254883, 0.0, 0.0, 23.25, 66.0, 255.0]], 'numDetectedPoints': 10, 'numDetectedTracks': 1, 'trackData': [[0.0, -0.4935018718242645, 3.1123909950256348, -1.3190307072363794e-05, -0.4501553773880005, -0.7445620894432068, -2.8881309845019132e-05, -0.2219517081975937, -0.7538074254989624, 3.2503089641977567e-07, 3.0, 0.9998710751533508, 0.0, 0.0, 0.0, 0.0]], 'trackIndexes': [0.0, 0.0, 0.0, 0.0, 0.0, 0.0, 0.0, 0.0, 0.0, 0.0]}",0,554,10,1,"[0.0, 0.0, 0.0, 0.0, 0.0, 0.0, 0.0, 0.0, 0.0, 0.0]",,1754507389952.5356,0.0,-1.3190307072363794e-05,3.1123909950256348,-0.4935018718242645,-2.8881309845019132e-05,-0.7445620894432068,-0.4501553773880005,3.2503089641977567e-07,-0.7538074254989624,-0.2219517081975937,0.0,3.0444860458374023,-1.2867450714111328,-1.1505062878131866,19.5,0.0,3.1539201736450195,-1.3554096221923828,-1.1505062878131866,17.0,0.0,3.3277273178100586,-1.394033432006836,-1.1505062878131866,13.5,0.0,3.035902976989746,-0.23317337036132812,-0.9587552398443222,18.0,0.0,2.857804298400879,0.102996826171875,-1.1505062878131866,19.25,0.0,2.903580665588379,0.10120868682861328,-1.1505062878131866,21.25,0.0,3.690004348754883,-1.615762710571289,0.0,13.75,0.0,3.477931022644043,-1.1025667190551758,0.0,23.25,0.0,3.5390853881835938,-1.2402534484863281,0.0,19.0,0.0,3.4085512161254883,-0.7492303848266602,0.0,23.25,,,,,,,,,,
"{'error': 0, 'frameNum': 555, 'pointCloud': [[-1.6189813613891602, 3.2039880752563477, 0.0, -1.342257335782051, 16.75, 66.0, 255.0], [-1.188039779663086, 3.1592845916748047, 0.0, -1.5340083837509155, 17.5, 67.0, 255.0], [-0.9999275207519531, 2.9886960983276367, 0.0, -1.5340083837509155, 27.25, 65.0, 255.0], [-1.008152961730957, 3.0548572540283203, 0.0, -1.5340083837509155, 25.75, 66.0, 255.0], [-0.6562471389770508, 2.9325485229492188, 0.0, -1.5340083837509155, 22.5, 66.0, 255.0], [-0.006794929504394531, 2.708315849304199, 0.0, -1.1505062878131866, 16.25, 66.0, 255.0], [-0.06973743438720703, 2.793431282043457, 0.0, -1.1505062878131866, 20.25, 66.0, 255.0], [-1.6257762908935547, 3.6857128143310547, 0.0, 0.0, 14.0, 69.0, 255.0], [-1.2080669403076172, 3.449678421020508, 0.0, 0.0, 22.0, 68.0, 255.0], [-1.2606382369995117, 3.5430192947387695, 0.0, 0.0, 18.5, 69.0, 255.0]], 'numDetectedPoints': 10, 'numDetectedTracks': 1, 'trackData': [[0.0, -0.5839418768882751, 2.9846532344818115, -1.1573225492611527e-05, -0.5117670297622681, -1.0091794729232788, -2.3483742552343756e-05, -0.22352203726768494, -1.0537928342819214, 3.5480832139000995e-06, 3.0, 0.9998839497566223, 0.0, 0.0, 0.0, 0.0]], 'trackIndexes': [0.0, 0.0, 0.0, 0.0, 0.0, 0.0, 0.0, 255.0, 0.0, 0.0]}",0,555,10,1,"[0.0, 0.0, 0.0, 0.0, 0.0, 0.0, 0.0, 255.0, 0.0, 0.0]",,1754507390058.6929,0.0,-1.1573225492611527e-05,2.9846532344818115,-0.5839418768882751,-2.3483742552343756e-05,-1.0091794729232788,-0.5117670297622681,3.5480832139000995e-06,-1.0537928342819214,-0.22352203726768494,0.0,3.2039880752563477,-1.6189813613891602,-1.342257335782051,16.75,0.0,3.1592845916748047,-1.188039779663086,-1.5340083837509155,17.5,0.0,2.9886960983276367,-0.9999275207519531,-1.5340083837509155,27.25,0.0,3.0548572540283203,-1.008152961730957,-1.5340083837509155,25.75,0.0,2.9325485229492188,-0.6562471389770508,-1.5340083837509155,22.5,0.0,2.708315849304199,-0.006794929504394531,-1.1505062878131866,16.25,0.0,2.793431282043457,-0.06973743438720703,-1.1505062878131866,20.25,0.0,3.6857128143310547,-1.6257762908935547,0.0,14.0,0.0,3.449678421020508,-1.2080669403076172,0.0,22.0,0.0,3.5430192947387695,-1.2606382369995117,0.0,18.5,,,,,,,,,,
"{'error': 0, 'frameNum': 556, 'pointCloud': [[-1.145482063293457, 2.913236618041992, 0.0, -1.9175104796886444, 26.5, 65.0, 255.0], [-1.227736473083496, 2.9865503311157227, 0.0, -1.9175104796886444, 24.0, 67.0, 255.0], [-1.3096332550048828, 3.0580759048461914, 0.0, -0.7670041918754578, 18.25, 67.0, 255.0], [-0.8976459503173828, 2.845644950866699, 0.0, -1.9175104796886444, 24.5, 65.0, 255.0], [-0.08189678192138672, 2.5681257247924805, 0.0, -1.72575943171978, 14.25, 66.0, 255.0], [-0.2435445785522461, 2.741575241088867, 0.0, -1.72575943171978, 22.25, 66.0, 255.0], [-0.04935264587402344, 2.6428699493408203, 0.0, -1.72575943171978, 21.25, 66.0, 255.0], [-1.1905431747436523, 3.461480140686035, 0.0, 0.0, 19.75, 70.0, 255.0], [-1.2774467468261719, 3.5333633422851562, 0.0, 0.0, 18.25, 69.0, 255.0], [-0.9087324142456055, 3.3620595932006836, 0.0, 0.0, 17.5, 70.0, 255.0]], 'numDetectedPoints': 10, 'numDetectedTracks': 1, 'trackData': [[0.0, -0.6221754550933838, 2.8362441062927246, -1.0055856364488136e-05, -0.4647616744041443, -1.2877559661865234, -1.8532655303715728e-05, -0.12536093592643738, -1.3390042781829834, 6.3690868046251126e-06, 3.0, 0.9998955726623535, 0.0, 0.0, 0.0, 0.0]], 'trackIndexes': [0.0, 0.0, 0.0, 0.0, 0.0, 0.0, 0.0, 0.0, 0.0, 0.0]}",0,556,10,1,"[0.0, 0.0, 0.0, 0.0, 0.0, 0.0, 0.0, 0.0, 0.0, 0.0]",,1754507390152.9326,0.0,-1.0055856364488136e-05,2.8362441062927246,-0.6221754550933838,-1.8532655303715728e-05,-1.2877559661865234,-0.4647616744041443,6.3690868046251126e-06,-1.3390042781829834,-0.12536093592643738,0.0,2.913236618041992,-1.145482063293457,-1.9175104796886444,26.5,0.0,2.9865503311157227,-1.227736473083496,-1.9175104796886444,24.0,0.0,3.0580759048461914,-1.3096332550048828,-0.7670041918754578,18.25,0.0,2.845644950866699,-0.8976459503173828,-1.9175104796886444,24.5,0.0,2.5681257247924805,-0.08189678192138672,-1.72575943171978,14.25,0.0,2.741575241088867,-0.2435445785522461,-1.72575943171978,22.25,0.0,2.6428699493408203,-0.04935264587402344,-1.72575943171978,21.25,0.0,3.461480140686035,-1.1905431747436523,0.0,19.75,0.0,3.5333633422851562,-1.2774467468261719,0.0,18.25,0.0,3.3620595932006836,-0.9087324142456055,0.0,17.5,,,,,,,,,,
"{'error': 0, 'frameNum': 557, 'pointCloud': [[-1.4766454696655273, 2.718687057495117, 0.0, -2.109261527657509, 18.25, 68.0, 255.0], [-0.9924173355102539, 2.0095109939575195, 0.0, -1.5340083837509155, 15.5, 65.0, 255.0], [-1.2170076370239258, 2.6879310607910156, 0.0, -2.109261527657509, 19.5, 68.0, 255.0], [-1.4945268630981445, 2.8688907623291016, 0.0, 0.19175104796886444, 17.0, 68.0, 255.0], [-1.4369487762451172, 3.0663013458251953, 0.0, -0.7670041918754578, 14.0, 68.0, 255.0], [-0.8955001831054688, 2.635359764099121, 0.0, -2.109261527657509, 20.25, 65.0, 255.0], [-0.32830238342285156, 2.5441646575927734, 0.0, -1.5340083837509155, 18.75, 66.0, 255.0], [-0.22852420806884766, 2.4383068084716797, 0.0, -1.5340083837509155, 18.0, 66.0, 255.0], [-1.3829469680786133, 1.6865730285644531, 0.0, 0.0, 17.0, 64.0, 255.0], [-1.1147260665893555, 3.484368324279785, 0.0, 0.0, 19.5, 70.0, 255.0], [-1.2803077697753906, 3.544449806213379, 0.0, 0.0, 18.25, 69.0, 255.0]], 'numDetectedPoints': 11, 'numDetectedTracks': 1, 'trackData': [[0.0, -0.7718775272369385, 2.673819065093994, -8.219436494982801e-06, -0.6439505219459534, -1.5032932758331299, -1.3626011423184536e-05, -0.2560819387435913, -1.4524552822113037, 8.833748324832413e-06, 3.0, 0.9999060034751892, 0.0, 0.0, 0.0, 0.0]], 'trackIndexes': [0.0, 0.0, 0.0, 0.0, 0.0, 0.0, 0.0, 0.0, 255.0, 0.0, 0.0]}",0,557,11,1,"[0.0, 0.0, 0.0, 0.0, 0.0, 0.0, 0.0, 0.0, 255.0, 0.0, 0.0]",,1754507390253.4773,0.0,-8.219436494982801e-06,2.673819065093994,-0.7718775272369385,-1.3626011423184536e-05,-1.5032932758331299,-0.6439505219459534,8.833748324832413e-06,-1.4524552822113037,-0.2560819387435913,0.0,2.718687057495117,-1.4766454696655273,-2.109261527657509,18.25,0.0,2.0095109939575195,-0.9924173355102539,-1.5340083837509155,15.5,0.0,2.6879310607910156,-1.2170076370239258,-2.109261527657509,19.5,0.0,2.8688907623291016,-1.4945268630981445,0.19175104796886444,17.0,0.0,3.0663013458251953,-1.4369487762451172,-0.7670041918754578,14.0,0.0,2.635359764099121,-0.8955001831054688,-2.109261527657509,20.25,0.0,2.5441646575927734,-0.32830238342285156,-1.5340083837509155,18.75,0.0,2.4383068084716797,-0.22852420806884766,-1.5340083837509155,18.0,0.0,1.6865730285644531,-1.3829469680786133,0.0,17.0,0.0,3.484368324279785,-1.1147260665893555,0.0,19.5,0.0,3.544449806213379,-1.2803077697753906,0.0,18.25,,,,,
"{'error': 0, 'frameNum': 558, 'pointCloud': [[-1.3060569763183594, 2.4007558822631836, 0.0, -3.45151886343956, 23.75, 65.0, 255.0], [-1.4026165008544922, 2.493739128112793, 0.0, -3.45151886343956, 19.25, 68.0, 255.0], [-1.4812946319580078, 2.6110410690307617, 0.0, -3.45151886343956, 13.75, 69.0, 255.0], [-1.1844635009765625, 2.246260643005371, 0.0, -0.19175104796886444, 23.75, 65.0, 255.0], [-0.9180307388305664, 2.199411392211914, 0.0, -1.72575943171978, 25.75, 65.0, 255.0], [-0.7513761520385742, 2.181887626647949, 0.0, -1.72575943171978, 23.25, 65.0, 255.0]], 'numDetectedPoints': 6, 'numDetectedTracks': 1, 'trackData': [[0.0, -0.9100943207740784, 2.4692163467407227, -7.281446869455976e-06, -0.775852382183075, -1.7668706178665161, -1.001963119051652e-05, -0.32666537165641785, -1.6121008396148682, 1.0506812031962909e-05, 3.0, 0.9999154210090637, 0.0, 0.0, 0.0, 0.0]], 'trackIndexes': [0.0, 0.0, 0.0, 0.0, 0.0, 0.0]}",0,558,6,1,"[0.0, 0.0, 0.0, 0.0, 0.0, 0.0]",,1754507390352.2,0.0,-7.281446869455976e-06,2.4692163467407227,-0.9100943207740784,-1.001963119051652e-05,-1.7668706178665161,-0.775852382183075,1.0506812031962909e-05,-1.6121008396148682,-0.32666537165641785,0.0,2.4007558822631836,-1.3060569763183594,-3.45151886343956,23.75,0.0,2.493739128112793,-1.4026165008544922,-3.45151886343956,19.25,0.0,2.6110410690307617,-1.4812946319580078,-3.45151886343956,13.75,0.0,2.246260643005371,-1.1844635009765625,-0.19175104796886444,23.75,0.0,2.199411392211914,-0.9180307388305664,-1.72575943171978,25.75,0.0,2.181887626647949,-0.7513761520385742,-1.72575943171978,23.25,,,,,,,,,,,,,,,,,,,,,,,,,,,,,,
"{'error': 0, 'frameNum': 559, 'pointCloud': [[-1.2001991271972656, 1.9304752349853516, 0.0, -1.1505062878131866, 27.25, 65.0, 255.0], [-1.2527704238891602, 2.01416015625, 0.0, 0.19175104796886444, 28.75, 65.0, 255.0], [-1.2763738632202148, 2.1250247955322266, 0.0, 0.19175104796886444, 26.5, 65.0, 255.0], [-1.2913942337036133, 2.2569894790649414, 0.0, 0.19175104796886444, 18.0, 68.0, 255.0], [-0.9680986404418945, 1.9294023513793945, 0.0, -1.1505062878131866, 14.0, 73.0, 255.0], [-1.1544227600097656, 2.4483203887939453, 0.0, 0.0, 20.75, 67.0, 255.0], [-1.5360116958618164, 3.256559371948242, 0.0, 0.0, 17.0, 70.0, 255.0], [-1.416921615600586, 3.1392574310302734, 0.0, 0.0, 16.0, 71.0, 255.0]], 'numDetectedPoints': 8, 'numDetectedTracks': 1, 'trackData': [[0.0, -1.1061466932296753, 2.2566428184509277, -6.37967877992196e-06, -1.0546698570251465, -1.9394458532333374, -6.67879794491455e-06, -0.5697246789932251, -1.5785998106002808, 1.1761697351175826e-05, 3.0, 0.9999238848686218, 0.0, 0.0, 0.0, 0.0]], 'trackIndexes': [0.0, 0.0, 0.0, 0.0, 0.0, 0.0, 255.0, 0.0]}",0,559,8,1,"[0.0, 0.0, 0.0, 0.0, 0.0, 0.0, 255.0, 0.0]",,1754507390456.5852,0.0,-6.37967877992196e-06,2.2566428184509277,-1.1061466932296753,-6.67879794491455e-06,-1.9394458532333374,-1.0546698570251465,1.1761697351175826e-05,-1.5785998106002808,-0.5697246789932251,0.0,1.9304752349853516,-1.2001991271972656,-1.1505062878131866,27.25,0.0,2.01416015625,-1.2527704238891602,0.19175104796886444,28.75,0.0,2.1250247955322266,-1.2763738632202148,0.19175104796886444,26.5,0.0,2.2569894790649414,-1.2913942337036133,0.19175104796886444,18.0,0.0,1.9294023513793945,-0.9680986404418945,-1.1505062878131866,14.0,0.0,2.4483203887939453,-1.1544227600097656,0.0,20.75,0.0,3.256559371948242,-1.5360116958618164,0.0,17.0,0.0,3.1392574310302734,-1.416921615600586,0.0,16.0,,,,,,,,,,,,,,,,,,,,
"{'error': 0, 'frameNum': 560, 'pointCloud': [[-1.0728836059570312, 1.8121004104614258, 0.0, -0.19175104796886444, 16.0, 72.0, 255.0], [-1.0514259338378906, 1.898646354675293, 0.0, -0.7670041918754578, 23.75, 65.0, 255.0], [-1.0646581649780273, 2.032041549682617, 0.0, -0.7670041918754578, 20.0, 65.0, 255.0], [-1.1501312255859375, 2.192258834838867, 0.0, -0.3835020959377289, 16.0, 66.0, 255.0], [-1.2305974960327148, 2.1833181381225586, 0.0, 0.0, 25.75, 65.0, 255.0], [-1.1909008026123047, 2.4268627166748047, 0.0, 0.0, 18.0, 70.0, 255.0], [-1.384735107421875, 3.1249523162841797, 0.0, 0.0, 14.0, 71.0, 255.0]], 'numDetectedPoints': 7, 'numDetectedTracks': 1, 'trackData': [[0.0, -1.2131479978561401, 2.0562760829925537, -5.550666628550971e-06, -1.1323366165161133, -2.070333242416382, -3.7042086660221685e-06, -0.6071666479110718, -1.5278249979019165, 1.2772185982612427e-05, 3.0, 0.9999315142631531, 0.0, 0.0, 0.0, 0.0]], 'trackIndexes': [0.0, 0.0, 0.0, 0.0, 0.0, 0.0, 255.0]}",0,560,7,1,"[0.0, 0.0, 0.0, 0.0, 0.0, 0.0, 255.0]",,1754507390554.5305,0.0,-5.550666628550971e-06,2.0562760829925537,-1.2131479978561401,-3.7042086660221685e-06,-2.070333242416382,-1.1323366165161133,1.2772185982612427e-05,-1.5278249979019165,-0.6071666479110718,0.0,1.8121004104614258,-1.0728836059570312,-0.19175104796886444,16.0,0.0,1.898646354675293,-1.0514259338378906,-0.7670041918754578,23.75,0.0,2.032041549682617,-1.0646581649780273,-0.7670041918754578,20.0,0.0,2.192258834838867,-1.1501312255859375,-0.3835020959377289,16.0,0.0,2.1833181381225586,-1.2305974960327148,0.0,25.75,0.0,2.4268627166748047,-1.1909008026123047,0.0,18.0,0.0,3.1249523162841797,-1.384735107421875,0.0,14.0,,,,,,,,,,,,,,,,,,,,,,,,,
"{'error': 0, 'frameNum': 561, 'pointCloud': [[-1.1601448059082031, 1.7985105514526367, 0.0, -0.19175104796886444, 16.25, 72.0, 255.0], [-1.2742280960083008, 1.8117427825927734, 0.0, -0.19175104796886444, 27.25, 65.0, 255.0], [-1.341104507446289, 1.8521547317504883, 0.0, -0.19175104796886444, 26.0, 64.0, 255.0], [-1.3446807861328125, 1.9687414169311523, 0.0, -0.19175104796886444, 18.25, 64.0, 255.0], [-1.1841058731079102, 2.43222713470459, 0.0, 0.0, 17.0, 71.0, 255.0], [-1.2363195419311523, 2.979755401611328, 0.0, 0.0, 17.5, 71.0, 255.0], [-1.313924789428711, 3.1245946884155273, 0.0, 0.0, 13.0, 71.0, 255.0]], 'numDetectedPoints': 7, 'numDetectedTracks': 1, 'trackData': [[0.0, -1.3618054389953613, 1.8524224758148193, -4.510037342697615e-06, -1.285852313041687, -2.1780734062194824, -7.260697429956053e-07, -0.7177439332008362, -1.4533411264419556, 1.3702226169698406e-05, 3.0, 0.9999383687973022, 0.0, 0.0, 0.0, 0.0]], 'trackIndexes': [0.0, 0.0, 0.0, 0.0, 0.0, 255.0, 255.0]}",0,561,7,1,"[0.0, 0.0, 0.0, 0.0, 0.0, 255.0, 255.0]",,1754507390657.1523,0.0,-4.510037342697615e-06,1.8524224758148193,-1.3618054389953613,-7.260697429956053e-07,-2.1780734062194824,-1.285852313041687,1.3702226169698406e-05,-1.4533411264419556,-0.7177439332008362,0.0,1.7985105514526367,-1.1601448059082031,-0.19175104796886444,16.25,0.0,1.8117427825927734,-1.2742280960083008,-0.19175104796886444,27.25,0.0,1.8521547317504883,-1.341104507446289,-0.19175104796886444,26.0,0.0,1.9687414169311523,-1.3446807861328125,-0.19175104796886444,18.25,0.0,2.43222713470459,-1.1841058731079102,0.0,17.0,0.0,2.979755401611328,-1.2363195419311523,0.0,17.5,0.0,3.1245946884155273,-1.313924789428711,0.0,13.0,,,,,,,,,,,,,,,,,,,,,,,,,
"{'error': 0, 'frameNum': 612, 'pointCloud': [[-1.2903213500976562, 3.3055543899536133, 0.0, -0.19175104796886444, 23.0, 65.0, 255.0], [-1.4029741287231445, 3.4335851669311523, 0.0, -0.19175104796886444, 15.0, 65.0, 255.0], [-1.1061429977416992, 3.2640695571899414, 0.0, -0.19175104796886444, 22.25, 65.0, 255.0], [-1.1562108993530273, 3.2873153686523438, 0.0, -0.19175104796886444, 26.25, 65.0, 255.0], [0.3114938735961914, 2.9790401458740234, 0.0, -0.3835020959377289, 14.0, 66.0, 255.0], [0.3622770309448242, 3.087759017944336, 0.0, -0.3835020959377289, 14.0, 66.0, 255.0], [-1.337885856628418, 3.343820571899414, 0.0, 0.0, 21.75, 66.0, 255.0], [-1.3554096221923828, 3.494739532470703, 0.0, 0.0, 14.75, 67.0, 255.0], [-1.038193702697754, 3.350973129272461, 0.0, 0.0, 22.75, 65.0, 255.0], [-0.09047985076904297, 3.0584335327148438, 0.0, 0.0, 19.25, 65.0, 255.0]], 'numDetectedPoints': 10, 'numDetectedTracks': 1, 'trackData': [[0.0, 0.17853789031505585, 3.197539806365967, 0.014854175969958305, 0.656976044178009, -0.4646962285041809, 0.030970269814133644, 0.13567045331001282, -0.5032445788383484, 0.021470312029123306, 3.0, 0.9947665929794312, 0.0, 0.0, 0.0, 0.0]], 'trackIndexes': [255.0, 255.0, 255.0, 255.0, 0.0, 0.0, 255.0, 255.0, 255.0, 0.0]}",0,612,10,1,"[255.0, 255.0, 255.0, 255.0, 0.0, 0.0, 255.0, 255.0, 255.0, 0.0]",True,1754507395756.35,0.0,0.014854175969958305,3.197539806365967,0.17853789031505585,0.030970269814133644,-0.4646962285041809,0.656976044178009,0.021470312029123306,-0.5032445788383484,0.13567045331001282,0.0,3.3055543899536133,-1.2903213500976562,-0.19175104796886444,23.0,0.0,3.4335851669311523,-1.4029741287231445,-0.19175104796886444,15.0,0.0,3.2640695571899414,-1.1061429977416992,-0.19175104796886444,22.25,0.0,3.2873153686523438,-1.1562108993530273,-0.19175104796886444,26.25,0.0,2.9790401458740234,0.3114938735961914,-0.3835020959377289,14.0,0.0,3.087759017944336,0.3622770309448242,-0.3835020959377289,14.0,0.0,3.343820571899414,-1.337885856628418,0.0,21.75,0.0,3.494739532470703,-1.3554096221923828,0.0,14.75,0.0,3.350973129272461,-1.038193702697754,0.0,22.75,0.0,3.0584335327148438,-0.09047985076904297,0.0,19.25,,,,,,,,,,
"{'error': 0, 'frameNum': 613, 'pointCloud': [[-1.019597053527832, 3.268003463745117, 0.0, -0.5752531439065933, 20.75, 65.0, 255.0], [-1.1293888092041016, 3.3431053161621094, 0.0, -0.19175104796886444, 17.25, 65.0, 255.0], [-0.9713172912597656, 3.3077001571655273, 0.0, -0.3835020959377289, 22.5, 65.0, 255.0], [-1.4505386352539062, 3.4400224685668945, 0.0, 0.0, 15.5, 67.0, 255.0], [-1.0814666748046875, 3.404974937438965, 0.0, 0.0, 23.0, 66.0, 255.0]], 'numDetectedPoints': 5, 'numDetectedTracks': 1, 'trackData': [[0.0, 0.24491383135318756, 3.1485538482666016, 0.01805855520069599, 0.6705430746078491, -0.5150206685066223, 0.033117301762104034, 0.0, 0.0, 0.0, 3.0, 0.9848189353942871, 0.0, 0.0, 0.0, 0.0]], 'trackIndexes': [255.0, 255.0, 255.0, 255.0, 255.0]}",0,613,5,1,"[255.0, 255.0, 255.0, 255.0, 255.0]",,1754507395848.799,0.0,0.01805855520069599,3.1485538482666016,0.24491383135318756,0.033117301762104034,-0.5150206685066223,0.6705430746078491,0.0,0.0,0.0,0.0,3.268003463745117,-1.019597053527832,-0.5752531439065933,20.75,0.0,3.3431053161621094,-1.1293888092041016,-0.19175104796886444,17.25,0.0,3.3077001571655273,-0.9713172912597656,-0.3835020959377289,22.5,0.0,3.4400224685668945,-1.4505386352539062,0.0,15.5,0.0,3.404974937438965,-1.0814666748046875,0.0,23.0,,,,,,,,,,,,,,,,,,,,,,,,,,,,,,,,,,,
"{'error': 0, 'frameNum': 614, 'pointCloud': [[-1.7917156219482422, 3.081679344177246, 0.0, -0.5752531439065933, 15.5, 66.0, 255.0], [-1.3207197189331055, 3.162503242492676, 0.0, -0.3835020959377289, 20.25, 65.0, 255.0], [-1.0836124420166016, 3.1539201736450195, 0.0, -0.7670041918754578, 20.75, 65.0, 255.0], [-0.03898143768310547, 3.0423402786254883, 0.0, -0.5752531439065933, 17.25, 66.0, 255.0], [0.21779537200927734, 2.870321273803711, 0.0, -0.5752531439065933, 18.25, 66.0, 255.0], [0.28717517852783203, 2.9000043869018555, 0.0, -0.5752531439065933, 21.25, 66.0, 255.0], [-1.6922950744628906, 3.340601921081543, 0.0, 0.0, 15.25, 67.0, 255.0], [-1.0099411010742188, 3.319859504699707, 0.0, 0.0, 26.0, 65.0, 255.0], [-1.147627830505371, 3.367781639099121, 0.0, 0.0, 21.25, 67.0, 255.0]], 'numDetectedPoints': 9, 'numDetectedTracks': 1, 'trackData': [[0.0, 0.25774917006492615, 3.0710995197296143, 0.016318906098604202, 0.5882070660591125, -0.5605466365814209, 0.028198590502142906, -0.06308359652757645, -0.051513027399778366, -0.0022685397416353226, 3.0, 0.9848189353942871, 0.0, 0.0, 0.0, 0.0]], 'trackIndexes': [255.0, 255.0, 255.0, 0.0, 0.0, 0.0, 255.0, 255.0, 255.0]}",0,614,9,1,"[255.0, 255.0, 255.0, 0.0, 0.0, 0.0, 255.0, 255.0, 255.0]",,1754507395955.9204,0.0,0.016318906098604202,3.0710995197296143,0.25774917006492615,0.028198590502142906,-0.5605466365814209,0.5882070660591125,-0.0022685397416353226,-0.051513027399778366,-0.06308359652757645,0.0,3.081679344177246,-1.7917156219482422,-0.5752531439065933,15.5,0.0,3.162503242492676,-1.3207197189331055,-0.3835020959377289,20.25,0.0,3.1539201736450195,-1.0836124420166016,-0.7670041918754578,20.75,0.0,3.0423402786254883,-0.03898143768310547,-0.5752531439065933,17.25,0.0,2.870321273803711,0.21779537200927734,-0.5752531439065933,18.25,0.0,2.9000043869018555,0.28717517852783203,-0.5752531439065933,21.25,0.0,3.340601921081543,-1.6922950744628906,0.0,15.25,0.0,3.319859504699707,-1.0099411010742188,0.0,26.0,0.0,3.367781639099121,-1.147627830505371,0.0,21.25,,,,,,,,,,,,,,,
"{'error': 0, 'frameNum': 615, 'pointCloud': [[-1.6121864318847656, 3.185391426086426, 0.0, -1.1505062878131866, 16.25, 66.0, 255.0], [-1.1522769927978516, 3.0863285064697266, 0.0, -0.9587552398443222, 20.25, 65.0, 255.0], [-1.3707876205444336, 3.1585693359375, 0.0, -1.1505062878131866, 17.25, 66.0, 255.0], [-0.6473064422607422, 3.013014793395996, 0.0, -0.3835020959377289, 18.75, 65.0, 255.0], [-0.02968311309814453, 2.7616024017333984, 0.0, -0.5752531439065933, 12.25, 66.0, 255.0], [0.006794929504394531, 2.8417110443115234, 0.0, -0.7670041918754578, 20.75, 66.0, 255.0], [0.025391578674316406, 2.891421318054199, 0.0, -0.7670041918754578, 22.0, 66.0, 255.0], [-1.644730567932129, 3.3617019653320312, 0.0, 0.0, 16.0, 67.0, 255.0], [-1.2652873992919922, 3.334164619445801, 0.0, 0.0, 21.0, 67.0, 255.0], [-0.5775690078735352, 3.1009912490844727, 0.0, 0.0, 21.75, 65.0, 255.0]], 'numDetectedPoints': 10, 'numDetectedTracks': 1, 'trackData': [[0.0, 0.13192827999591827, 3.0046536922454834, 0.013730506412684917, 0.3251833915710449, -0.5797788500785828, 0.022886848077178, -0.24735382199287415, -0.06926748156547546, -0.004566288087517023, 3.0, 0.9863370656967163, 0.0, 0.0, 0.0, 0.0]], 'trackIndexes': [255.0, 255.0, 255.0, 0.0, 0.0, 0.0, 0.0, 255.0, 255.0, 0.0]}",0,615,10,1,"[255.0, 255.0, 255.0, 0.0, 0.0, 0.0, 0.0, 255.0, 255.0, 0.0]",,1754507396052.122,0.0,0.013730506412684917,3.0046536922454834,0.13192827999591827,0.022886848077178,-0.5797788500785828,0.3251833915710449,-0.004566288087517023,-0.06926748156547546,-0.24735382199287415,0.0,3.185391426086426,-1.6121864318847656,-1.1505062878131866,16.25,0.0,3.0863285064697266,-1.1522769927978516,-0.9587552398443222,20.25,0.0,3.1585693359375,-1.3707876205444336,-1.1505062878131866,17.25,0.0,3.013014793395996,-0.6473064422607422,-0.3835020959377289,18.75,0.0,2.7616024017333984,-0.02968311309814453,-0.5752531439065933,12.25,0.0,2.8417110443115234,0.006794929504394531,-0.7670041918754578,20.75,0.0,2.891421318054199,0.025391578674316406,-0.7670041918754578,22.0,0.0,3.3617019653320312,-1.644730567932129,0.0,16.0,0.0,3.334164619445801,-1.2652873992919922,0.0,21.0,0.0,3.1009912490844727,-0.5775690078735352,0.0,21.75,,,,,,,,,,
"{'error': 0, 'frameNum': 616, 'pointCloud': [[-1.2649297714233398, 3.144979476928711, 0.0, -1.1505062878131866, 14.5, 68.0, 255.0], [-1.02996826171875, 3.074526786804199, 0.0, -1.342257335782051, 19.75, 65.0, 255.0], [-0.3075599670410156, 3.0187368392944336, 0.0, -0.7670041918754578, 22.25, 65.0, 255.0], [-0.25534629821777344, 2.7472972869873047, 0.0, -0.7670041918754578, 14.0, 66.0, 255.0], [-0.1055002212524414, 2.85494327545166, 0.0, -0.7670041918754578, 22.5, 66.0, 255.0], [-0.0064373016357421875, 2.9200315475463867, 0.0, -0.7670041918754578, 25.0, 66.0, 255.0], [-1.155853271484375, 3.3538341522216797, 0.0, 0.0, 20.5, 68.0, 255.0]], 'numDetectedPoints': 7, 'numDetectedTracks': 1, 'trackData': [[0.0, 0.055677689611911774, 2.932629346847534, 0.011741172522306442, 0.15022611618041992, -0.622998833656311, 0.018468229100108147, -0.3564557433128357, -0.12232013046741486, -0.006357056088745594, 3.0, 0.9877033829689026, 0.0, 0.0, 0.0, 0.0]], 'trackIndexes': [255.0, 255.0, 0.0, 0.0, 0.0, 0.0, 255.0]}",0,616,7,1,"[255.0, 255.0, 0.0, 0.0, 0.0, 0.0, 255.0]",,1754507396157.1853,0.0,0.011741172522306442,2.932629346847534,0.055677689611911774,0.018468229100108147,-0.622998833656311,0.15022611618041992,-0.006357056088745594,-0.12232013046741486,-0.3564557433128357,0.0,3.144979476928711,-1.2649297714233398,-1.1505062878131866,14.5,0.0,3.074526786804199,-1.02996826171875,-1.342257335782051,19.75,0.0,3.0187368392944336,-0.3075599670410156,-0.7670041918754578,22.25,0.0,2.7472972869873047,-0.25534629821777344,-0.7670041918754578,14.0,0.0,2.85494327545166,-0.1055002212524414,-0.7670041918754578,22.5,0.0,2.9200315475463867,-0.0064373016357421875,-0.7670041918754578,25.0,0.0,3.3538341522216797,-1.155853271484375,0.0,20.5,,,,,,,,,,,,,,,,,,,,,,,,,
"{'error': 0, 'frameNum': 617, 'pointCloud': [[-1.1522769927978516, 3.059506416320801, 0.0, -0.3835020959377289, 20.5, 68.0, 255.0], [-1.2649297714233398, 3.129243850708008, 0.0, -0.3835020959377289, 17.0, 68.0, 255.0], [-1.0156631469726562, 2.945065498352051, 0.0, -1.1505062878131866, 22.25, 66.0, 255.0], [-0.4184246063232422, 2.542734146118164, 0.0, -1.1505062878131866, 13.0, 66.0, 255.0], [-0.4992485046386719, 2.8481483459472656, 0.0, -1.1505062878131866, 23.25, 66.0, 255.0], [-0.29468536376953125, 2.6711225509643555, 0.0, -1.1505062878131866, 21.75, 66.0, 255.0], [-0.26285648345947266, 2.748727798461914, 0.0, -1.1505062878131866, 25.0, 66.0, 255.0], [-0.2624988555908203, 2.7469396591186523, 0.0, -1.1505062878131866, 25.0, 66.0, 255.0], [-1.5091896057128906, 3.4232139587402344, 0.0, 0.0, 14.5, 67.0, 255.0], [-1.224517822265625, 3.3295154571533203, 0.0, 0.0, 20.25, 68.0, 255.0], [-0.06222724914550781, 2.807021141052246, 0.0, 0.0, 22.75, 66.0, 255.0], [0.16486644744873047, 2.9093027114868164, 0.0, 0.0, 23.0, 66.0, 255.0]], 'numDetectedPoints': 12, 'numDetectedTracks': 1, 'trackData': [[0.0, -0.07077115029096603, 2.811018466949463, 0.00960896722972393, -0.08362841606140137, -0.7813419103622437, 0.01412739884108305, -0.503717303276062, -0.3232550323009491, -0.008089689537882805, 3.0, 0.9889330267906189, 0.0, 0.0, 0.0, 0.0]], 'trackIndexes': [255.0, 255.0, 255.0, 0.0, 0.0, 0.0, 0.0, 0.0, 255.0, 255.0, 0.0, 0.0]}",0,617,12,1,"[255.0, 255.0, 255.0, 0.0, 0.0, 0.0, 0.0, 0.0, 255.0, 255.0, 0.0, 0.0]",,1754507396250.702,0.0,0.00960896722972393,2.811018466949463,-0.07077115029096603,0.01412739884108305,-0.7813419103622437,-0.08362841606140137,-0.008089689537882805,-0.3232550323009491,-0.503717303276062,0.0,3.059506416320801,-1.1522769927978516,-0.3835020959377289,20.5,0.0,3.129243850708008,-1.2649297714233398,-0.3835020959377289,17.0,0.0,2.945065498352051,-1.0156631469726562,-1.1505062878131866,22.25,0.0,2.542734146118164,-0.4184246063232422,-1.1505062878131866,13.0,0.0,2.8481483459472656,-0.4992485046386719,-1.1505062878131866,23.25,0.0,2.6711225509643555,-0.29468536376953125,-1.1505062878131866,21.75,0.0,2.748727798461914,-0.26285648345947266,-1.1505062878131866,25.0,0.0,2.7469396591186523,-0.2624988555908203,-1.1505062878131866,25.0,0.0,3.4232139587402344,-1.5091896057128906,0.0,14.5,0.0,3.3295154571533203,-1.224517822265625,0.0,20.25,0.0,2.807021141052246,-0.06222724914550781,0.0,22.75,0.0,2.9093027114868164,0.16486644744873047,0.0,23.0
"{'error': 0, 'frameNum': 618, 'pointCloud': [[-1.3489723205566406, 1.8957853317260742, 0.0, -0.19175104796886444, 17.25, 64.0, 255.0], [-1.319289207458496, 2.567410469055176, 0.0, -0.7670041918754578, 22.0, 66.0, 255.0], [-1.2470483779907227, 2.751946449279785, 0.0, -2.4927636235952377, 16.5, 69.0, 255.0], [-1.409769058227539, 2.8792619705200195, 0.0, -0.3835020959377289, 12.25, 68.0, 255.0], [-0.9673833847045898, 2.556324005126953, 0.0, -0.9587552398443222, 23.5, 65.0, 255.0], [-0.6687641143798828, 2.399325370788574, 0.0, -1.342257335782051, 22.0, 65.0, 255.0], [-0.5900859832763672, 2.509474754333496, 0.0, -1.342257335782051, 24.25, 66.0, 255.0], [-1.227736473083496, 1.844644546508789, 0.0, 0.0, 17.5, 64.0, 255.0], [-1.4494657516479492, 3.415703773498535, 0.0, 0.0, 12.5, 68.0, 255.0], [-1.1512041091918945, 3.345966339111328, 0.0, 0.0, 19.0, 69.0, 255.0], [0.1348257064819336, 2.8967857360839844, 0.0, 0.0, 21.75, 67.0, 255.0]], 'numDetectedPoints': 11, 'numDetectedTracks': 1, 'trackData': [[0.0, -0.23122316598892212, 2.700535297393799, 0.009110232815146446, -0.3434460163116455, -0.8864361643791199, 0.011569355614483356, -0.6563678979873657, -0.42685437202453613, -0.00891854427754879, 3.0, 0.9889330267906189, 0.0, 0.0, 0.0, 0.0]], 'trackIndexes': [255.0, 255.0, 255.0, 255.0, 0.0, 0.0, 0.0, 255.0, 255.0, 0.0, 0.0]}",0,618,11,1,"[255.0, 255.0, 255.0, 255.0, 0.0, 0.0, 0.0, 255.0, 255.0, 0.0, 0.0]",,1754507396357.164,0.0,0.009110232815146446,2.700535297393799,-0.23122316598892212,0.011569355614483356,-0.8864361643791199,-0.3434460163116455,-0.00891854427754879,-0.42685437202453613,-0.6563678979873657,0.0,1.8957853317260742,-1.3489723205566406,-0.19175104796886444,17.25,0.0,2.567410469055176,-1.319289207458496,-0.7670041918754578,22.0,0.0,2.751946449279785,-1.2470483779907227,-2.4927636235952377,16.5,0.0,2.8792619705200195,-1.409769058227539,-0.3835020959377289,12.25,0.0,2.556324005126953,-0.9673833847045898,-0.9587552398443222,23.5,0.0,2.399325370788574,-0.6687641143798828,-1.342257335782051,22.0,0.0,2.509474754333496,-0.5900859832763672,-1.342257335782051,24.25,0.0,1.844644546508789,-1.227736473083496,0.0,17.5,0.0,3.415703773498535,-1.4494657516479492,0.0,12.5,0.0,3.345966339111328,-1.1512041091918945,0.0,19.0,0.0,2.8967857360839844,0.1348257064819336,0.0,21.75,,,,,
"{'error': 0, 'frameNum': 619, 'pointCloud': [[-1.201629638671875, 2.015233039855957, 0.0, -0.19175104796886444, 22.25, 65.0, 255.0], [-1.0099411010742188, 2.197265625, 0.0, -1.342257335782051, 27.0, 65.0, 255.0], [-1.031041145324707, 2.2695064544677734, 0.0, -0.19175104796886444, 25.5, 65.0, 255.0], [-1.1082887649536133, 2.4143457412719727, 0.0, -2.8762657195329666, 20.5, 65.0, 255.0], [-1.0857582092285156, 2.637147903442383, 0.0, -2.8762657195329666, 15.75, 68.0, 255.0], [-1.2313127517700195, 1.9172430038452148, 0.0, 0.0, 18.0, 64.0, 255.0], [-1.1762380599975586, 3.209710121154785, 0.0, 0.0, 21.75, 70.0, 255.0], [0.08940696716308594, 2.899289131164551, 0.0, 0.0, 22.0, 67.0, 255.0]], 'numDetectedPoints': 8, 'numDetectedTracks': 1, 'trackData': [[0.0, -0.5113375186920166, 2.585341453552246, 0.00794825330376625, -0.7550139427185059, -0.9850403666496277, 0.008550948463380337, -0.9109827280044556, -0.5101583003997803, -0.009928976185619831, 3.0, 0.9900397062301636, 0.0, 0.0, 0.0, 0.0]], 'trackIndexes': [255.0, 0.0, 0.0, 0.0, 0.0, 255.0, 0.0, 0.0]}",0,619,8,1,"[255.0, 0.0, 0.0, 0.0, 0.0, 255.0, 0.0, 0.0]",,1754507396451.4749,0.0,0.00794825330376625,2.585341453552246,-0.5113375186920166,0.008550948463380337,-0.9850403666496277,-0.7550139427185059,-0.009928976185619831,-0.5101583003997803,-0.9109827280044556,0.0,2.015233039855957,-1.201629638671875,-0.19175104796886444,22.25,0.0,2.197265625,-1.0099411010742188,-1.342257335782051,27.0,0.0,2.2695064544677734,-1.031041145324707,-0.19175104796886444,25.5,0.0,2.4143457412719727,-1.1082887649536133,-2.8762657195329666,20.5,0.0,2.637147903442383,-1.0857582092285156,-2.8762657195329666,15.75,0.0,1.9172430038452148,-1.2313127517700195,0.0,18.0,0.0,3.209710121154785,-1.1762380599975586,0.0,21.75,0.0,2.899289131164551,0.08940696716308594,0.0,22.0,,,,,,,,,,,,,,,,,,,,
"{'error': 0, 'frameNum': 620, 'pointCloud': [[-1.1544227600097656, 2.1042823791503906, 0.0, -0.7670041918754578, 32.0, 64.0, 255.0], [-1.2177228927612305, 2.170085906982422, 0.0, -0.7670041918754578, 30.5, 64.0, 255.0], [-1.2542009353637695, 2.295970916748047, 0.0, -2.109261527657509, 24.0, 66.0, 255.0], [-1.043558120727539, 2.0699501037597656, 0.0, -0.7670041918754578, 28.5, 65.0, 255.0], [-1.3135671615600586, 2.445816993713379, 0.0, -2.109261527657509, 14.25, 69.0, 255.0], [-1.1072158813476562, 1.983046531677246, 0.0, 0.0, 22.5, 64.0, 255.0], [-1.336812973022461, 3.280162811279297, 0.0, 0.0, 15.5, 69.0, 255.0], [-1.1605024337768555, 3.204345703125, 0.0, 0.0, 19.5, 69.0, 255.0], [0.051856040954589844, 2.8982162475585938, 0.0, 0.0, 20.75, 68.0, 255.0]], 'numDetectedPoints': 9, 'numDetectedTracks': 1, 'trackData': [[0.0, -0.7924137711524963, 2.440629243850708, 0.006583976559340954, -1.1366394758224487, -1.1156494617462158, 0.005479204468429089, -1.124881625175476, -0.60887610912323, -0.010937724262475967, 3.0, 0.9910357594490051, 0.0, 0.0, 0.0, 0.0]], 'trackIndexes': [0.0, 0.0, 0.0, 0.0, 0.0, 0.0, 0.0, 0.0, 0.0]}",0,620,9,1,"[0.0, 0.0, 0.0, 0.0, 0.0, 0.0, 0.0, 0.0, 0.0]",,1754507396557.4368,0.0,0.006583976559340954,2.440629243850708,-0.7924137711524963,0.005479204468429089,-1.1156494617462158,-1.1366394758224487,-0.010937724262475967,-0.60887610912323,-1.124881625175476,0.0,2.1042823791503906,-1.1544227600097656,-0.7670041918754578,32.0,0.0,2.170085906982422,-1.2177228927612305,-0.7670041918754578,30.5,0.0,2.295970916748047,-1.2542009353637695,-2.109261527657509,24.0,0.0,2.0699501037597656,-1.043558120727539,-0.7670041918754578,28.5,0.0,2.445816993713379,-1.3135671615600586,-2.109261527657509,14.25,0.0,1.983046531677246,-1.1072158813476562,0.0,22.5,0.0,3.280162811279297,-1.336812973022461,0.0,15.5,0.0,3.204345703125,-1.1605024337768555,0.0,19.5,0.0,2.8982162475585938,0.051856040954589844,0.0,20.75,,,,,,,,,,,,,,,
"{'error': 0, 'frameNum': 621, 'pointCloud': [[-1.3146400451660156, 1.9812583923339844, 0.0, -0.19175104796886444, 23.25, 65.0, 255.0], [-1.2177228927612305, 1.9054412841796875, 0.0, -0.19175104796886444, 20.75, 65.0, 255.0], [-1.2996196746826172, 2.1042823791503906, 0.0, -1.1505062878131866, 20.25, 65.0, 255.0], [-1.3153553009033203, 2.2455453872680664, 0.0, -1.1505062878131866, 12.25, 68.0, 255.0], [-0.9466409683227539, 1.8943548202514648, 0.0, -0.19175104796886444, 12.25, 70.0, 255.0], [-1.1708736419677734, 1.9437074661254883, 0.0, 0.0, 23.0, 64.0, 255.0], [-1.7130374908447266, 3.12960147857666, 0.0, 0.0, 12.75, 69.0, 255.0], [-1.0296106338500977, 2.1865367889404297, 0.0, 0.0, 25.25, 65.0, 255.0], [-1.3117790222167969, 3.1256675720214844, 0.0, 0.0, 16.25, 70.0, 255.0], [-0.0021457672119140625, 2.8978586196899414, 0.0, 0.0, 19.25, 69.0, 255.0]], 'numDetectedPoints': 10, 'numDetectedTracks': 1, 'trackData': [[0.0, -1.0313276052474976, 2.2776031494140625, 0.005447301082313061, -1.440944790840149, -1.2417120933532715, 0.0027688760310411453, -1.2770661115646362, -0.6692869663238525, -0.011735781095921993, 3.0, 0.991932213306427, 0.0, 0.0, 0.0, 0.0]], 'trackIndexes': [0.0, 0.0, 0.0, 0.0, 0.0, 0.0, 255.0, 0.0, 0.0, 0.0]}",0,621,10,1,"[0.0, 0.0, 0.0, 0.0, 0.0, 0.0, 255.0, 0.0, 0.0, 0.0]",,1754507396650.0027,0.0,0.005447301082313061,2.2776031494140625,-1.0313276052474976,0.0027688760310411453,-1.2417120933532715,-1.440944790840149,-0.011735781095921993,-0.6692869663238525,-1.2770661115646362,0.0,1.9812583923339844,-1.3146400451660156,-0.19175104796886444,23.25,0.0,1.9054412841796875,-1.2177228927612305,-0.19175104796886444,20.75,0.0,2.1042823791503906,-1.2996196746826172,-1.1505062878131866,20.25,0.0,2.2455453872680664,-1.3153553009033203,-1.1505062878131866,12.25,0.0,1.8943548202514648,-0.9466409683227539,-0.19175104796886444,12.25,0.0,1.9437074661254883,-1.1708736419677734,0.0,23.0,0.0,3.12960147857666,-1.7130374908447266,0.0,12.75,0.0,2.1865367889404297,-1.0296106338500977,0.0,25.25,0.0,3.1256675720214844,-1.3117790222167969,0.0,16.25,0.0,2.8978586196899414,-0.0021457672119140625,0.0,19.25,,,,,,,,,,
"{'error': 0, 'frameNum': 622, 'pointCloud': [[-1.0492801666259766, 1.8568038940429688, 0.0, -0.5752531439065933, 18.5, 70.0, 255.0], [-1.0578632354736328, 1.886129379272461, 0.0, -0.5752531439065933, 25.75, 65.0, 255.0], [-1.066446304321289, 1.9640922546386719, 0.0, -0.5752531439065933, 20.75, 64.0, 255.0], [-1.0160207748413086, 2.1965503692626953, 0.0, -0.19175104796886444, 12.5, 65.0, 255.0], [-1.0442733764648438, 2.157926559448242, 0.0, 0.0, 25.75, 64.0, 255.0], [-1.5503168106079102, 3.038763999938965, 0.0, 0.0, 15.25, 69.0, 255.0], [-1.2878179550170898, 2.9865503311157227, 0.0, 0.0, 17.25, 70.0, 255.0], [0.010728836059570312, 2.8935670852661133, 0.0, 0.0, 18.5, 69.0, 255.0]], 'numDetectedPoints': 8, 'numDetectedTracks': 1, 'trackData': [[0.0, -1.1458842754364014, 2.120882511138916, 0.004501115996390581, -1.512968897819519, -1.3479652404785156, 0.0004286958137527108, -1.232805609703064, -0.703998863697052, -0.012312646955251694, 3.0, 0.9927390217781067, 0.0, 0.0, 0.0, 0.0]], 'trackIndexes': [0.0, 0.0, 0.0, 0.0, 0.0, 0.0, 0.0, 255.0]}",0,622,8,1,"[0.0, 0.0, 0.0, 0.0, 0.0, 0.0, 0.0, 255.0]",,1754507396756.6858,0.0,0.004501115996390581,2.120882511138916,-1.1458842754364014,0.0004286958137527108,-1.3479652404785156,-1.512968897819519,-0.012312646955251694,-0.703998863697052,-1.232805609703064,0.0,1.8568038940429688,-1.0492801666259766,-0.5752531439065933,18.5,0.0,1.886129379272461,-1.0578632354736328,-0.5752531439065933,25.75,0.0,1.9640922546386719,-1.066446304321289,-0.5752531439065933,20.75,0.0,2.1965503692626953,-1.0160207748413086,-0.19175104796886444,12.5,0.0,2.157926559448242,-1.0442733764648438,0.0,25.75,0.0,3.038763999938965,-1.5503168106079102,0.0,15.25,0.0,2.9865503311157227,-1.2878179550170898,0.0,17.25,0.0,2.8935670852661133,0.010728836059570312,0.0,18.5,,,,,,,,,,,,,,,,,,,,
"{'error': 0, 'frameNum': 623, 'pointCloud': [[-1.1894702911376953, 1.7577409744262695, 0.0, -0.3835020959377289, 20.25, 70.0, 255.0], [-1.256704330444336, 1.770615577697754, 0.0, -0.19175104796886444, 28.0, 65.0, 255.0], [-1.3475418090820312, 1.809239387512207, 0.0, -0.19175104796886444, 23.75, 65.0, 255.0], [-1.239180564880371, 2.093195915222168, 0.0, -0.19175104796886444, 16.25, 65.0, 255.0], [-1.186966896057129, 1.863241195678711, 0.0, 0.0, 27.5, 64.0, 255.0], [-1.4051198959350586, 3.0809640884399414, 0.0, 0.0, 14.25, 69.0, 255.0]], 'numDetectedPoints': 6, 'numDetectedTracks': 1, 'trackData': [[0.0, -1.3016431331634521, 1.959726095199585, 0.0035443948581814766, -1.6403166055679321, -1.4480013847351074, -0.0017590560019016266, -1.2396206855773926, -0.7279003858566284, -0.012793606147170067, 3.0, 0.9934651255607605, 0.0, 0.0, 0.0, 0.0]], 'trackIndexes': [0.0, 0.0, 0.0, 0.0, 0.0, 255.0]}",0,623,6,1,"[0.0, 0.0, 0.0, 0.0, 0.0, 255.0]",,1754507396851.2432,0.0,0.0035443948581814766,1.959726095199585,-1.3016431331634521,-0.0017590560019016266,-1.4480013847351074,-1.6403166055679321,-0.012793606147170067,-0.7279003858566284,-1.2396206855773926,0.0,1.7577409744262695,-1.1894702911376953,-0.3835020959377289,20.25,0.0,1.770615577697754,-1.256704330444336,-0.19175104796886444,28.0,0.0,1.809239387512207,-1.3475418090820312,-0.19175104796886444,23.75,0.0,2.093195915222168,-1.239180564880371,-0.19175104796886444,16.25,0.0,1.863241195678711,-1.186966896057129,0.0,27.5,0.0,3.0809640884399414,-1.4051198959350586,0.0,14.25,,,,,,,,,,,,,,,,,,,,,,,,,,,,,,
"{'error': 0, 'frameNum': 624, 'pointCloud': [[-1.2359619140625, 1.7323493957519531, 0.0, 0.19175104796886444, 19.5, 66.0, 255.0], [-1.2595653533935547, 1.783132553100586, 0.0, -0.19175104796886444, 23.25, 65.0, 255.0], [-1.2520551681518555, 1.8503665924072266, 0.0, -0.19175104796886444, 19.5, 65.0, 255.0], [-1.1966228485107422, 1.8407106399536133, 0.0, 0.0, 28.75, 64.0, 255.0]], 'numDetectedPoints': 4, 'numDetectedTracks': 1, 'trackData': [[0.0, -1.4301164150238037, 1.8156483173370361, 0.0027017085812985897, -1.6997381448745728, -1.5050039291381836, -0.0036551877856254578, -1.1903269290924072, -0.7077069878578186, -0.01309965830296278, 3.0, 0.9934651255607605, 0.0, 0.0, 0.0, 0.0]], 'trackIndexes': [0.0, 0.0, 0.0, 0.0]}",0,624,4,1,"[0.0, 0.0, 0.0, 0.0]",,1754507396957.2168,0.0,0.0027017085812985897,1.8156483173370361,-1.4301164150238037,-0.0036551877856254578,-1.5050039291381836,-1.6997381448745728,-0.01309965830296278,-0.7077069878578186,-1.1903269290924072,0.0,1.7323493957519531,-1.2359619140625,0.19175104796886444,19.5,0.0,1.783132553100586,-1.2595653533935547,-0.19175104796886444,23.25,0.0,1.8503665924072266,-1.2520551681518555,-0.19175104796886444,19.5,0.0,1.8407106399536133,-1.1966228485107422,0.0,28.75,,,,,,,,,,,,,,,,,,,,,,,,,,,,,,,,,,,,,,,,
"{'error': 0, 'frameNum': 668, 'pointCloud': [[-1.2470483779907227, 3.1954050064086914, 0.0, -0.3835020959377289, 17.75, 65.0, 255.0], [-1.0492801666259766, 3.309488296508789, 0.0, -0.3835020959377289, 21.25, 65.0, 255.0], [-1.0660886764526367, 3.406047821044922, 0.0, -0.3835020959377289, 15.75, 66.0, 255.0], [0.22351741790771484, 2.938985824584961, 0.0, -0.5752531439065933, 15.25, 65.0, 255.0], [0.3851652145385742, 3.0477046966552734, 0.0, -0.5752531439065933, 13.25, 65.0, 255.0], [-1.1522769927978516, 3.5390853881835938, 0.0, 0.0, 17.25, 68.0, 255.0], [0.09834766387939453, 3.2444000244140625, 0.0, 0.0, 22.5, 65.0, 255.0]], 'numDetectedPoints': 7, 'numDetectedTracks': 1, 'trackData': [[0.0, -0.20837372541427612, 3.214510202407837, 0.012634200043976307, 0.2082751989364624, -0.36390653252601624, 0.031607840210199356, -0.11780320852994919, -0.5442081689834595, 0.02305758371949196, 3.0, 0.9965663552284241, 4.87257619240312e+252, 2.5769858248112227e+161, 8.017786051689719e-96, 6.013470016991582e-154]], 'trackIndexes': [255.0, 0.0, 0.0, 0.0, 0.0, 0.0, 0.0]}",0,668,7,1,"[255.0, 0.0, 0.0, 0.0, 0.0, 0.0, 0.0]",True,1754507401356.7832,0.0,0.012634200043976307,3.214510202407837,-0.20837372541427612,0.031607840210199356,-0.36390653252601624,0.2082751989364624,0.02305758371949196,-0.5442081689834595,-0.11780320852994919,0.0,3.1954050064086914,-1.2470483779907227,-0.3835020959377289,17.75,0.0,3.309488296508789,-1.0492801666259766,-0.3835020959377289,21.25,0.0,3.406047821044922,-1.0660886764526367,-0.3835020959377289,15.75,0.0,2.938985824584961,0.22351741790771484,-0.5752531439065933,15.25,0.0,3.0477046966552734,0.3851652145385742,-0.5752531439065933,13.25,0.0,3.5390853881835938,-1.1522769927978516,0.0,17.25,0.0,3.2444000244140625,0.09834766387939453,0.0,22.5,,,,,,,,,,,,,,,,,,,,,,,,,
"{'error': 0, 'frameNum': 669, 'pointCloud': [[-2.2902488708496094, 3.313779830932617, 0.0, -0.7670041918754578, 14.0, 65.0, 255.0], [-1.4219284057617188, 3.487229347229004, 0.0, -0.5752531439065933, 19.25, 66.0, 255.0], [-1.0921955108642578, 3.5458803176879883, 0.0, -0.5752531439065933, 18.75, 67.0, 255.0], [-0.7410049438476562, 3.5136938095092773, 0.0, -0.5752531439065933, 15.0, 66.0, 255.0], [0.2263784408569336, 2.8481483459472656, 0.0, -0.7670041918754578, 18.25, 65.0, 255.0], [0.21958351135253906, 2.8731822967529297, 0.0, -0.7670041918754578, 19.75, 65.0, 255.0], [0.4538297653198242, 3.0215978622436523, 0.0, -0.7670041918754578, 14.25, 65.0, 255.0], [-0.14019012451171875, 3.2758712768554688, 0.0, 0.0, 22.25, 65.0, 255.0]], 'numDetectedPoints': 8, 'numDetectedTracks': 1, 'trackData': [[0.0, -0.17123915255069733, 3.1615278720855713, 0.011756541207432747, 0.22204309701919556, -0.4710487425327301, 0.029590513557195663, -0.09713291376829147, -0.6234667301177979, 0.02097906358540058, 3.0, 0.9969097375869751, 4.87257619240312e+252, 2.5769858248112227e+161, 8.017786051689719e-96, 6.013470016991582e-154]], 'trackIndexes': [255.0, 255.0, 0.0, 0.0, 0.0, 0.0, 0.0, 0.0]}",0,669,8,1,"[255.0, 255.0, 0.0, 0.0, 0.0, 0.0, 0.0, 0.0]",,1754507401449.0374,0.0,0.011756541207432747,3.1615278720855713,-0.17123915255069733,0.029590513557195663,-0.4710487425327301,0.22204309701919556,0.02097906358540058,-0.6234667301177979,-0.09713291376829147,0.0,3.313779830932617,-2.2902488708496094,-0.7670041918754578,14.0,0.0,3.487229347229004,-1.4219284057617188,-0.5752531439065933,19.25,0.0,3.5458803176879883,-1.0921955108642578,-0.5752531439065933,18.75,0.0,3.5136938095092773,-0.7410049438476562,-0.5752531439065933,15.0,0.0,2.8481483459472656,0.2263784408569336,-0.7670041918754578,18.25,0.0,2.8731822967529297,0.21958351135253906,-0.7670041918754578,19.75,0.0,3.0215978622436523,0.4538297653198242,-0.7670041918754578,14.25,0.0,3.2758712768554688,-0.14019012451171875,0.0,22.25,,,,,,,,,,,,,,,,,,,,
"{'error': 0, 'frameNum': 670, 'pointCloud': [[-1.6862154006958008, 3.323078155517578, 0.0, -0.7670041918754578, 16.25, 66.0, 255.0], [-1.4069080352783203, 3.2848119735717773, 0.0, -0.7670041918754578, 21.0, 65.0, 255.0], [-1.0886192321777344, 3.095269203186035, 0.0, -0.7670041918754578, 19.5, 64.0, 255.0], [-1.0961294174194336, 3.1735897064208984, 0.0, -0.7670041918754578, 26.5, 64.0, 255.0], [-1.077890396118164, 3.251194953918457, 0.0, -0.7670041918754578, 25.25, 65.0, 255.0], [0.07510185241699219, 2.95865535736084, 0.0, -0.7670041918754578, 12.75, 66.0, 255.0], [-1.0671615600585938, 3.4886598587036133, 0.0, 0.0, 21.0, 67.0, 255.0], [-0.7170438766479492, 3.4117698669433594, 0.0, 0.0, 22.5, 66.0, 255.0], [-0.20384788513183594, 3.266572952270508, 0.0, 0.0, 22.25, 65.0, 255.0]], 'numDetectedPoints': 9, 'numDetectedTracks': 1, 'trackData': [[0.0, -0.3277251124382019, 3.1134965419769287, 0.011621344834566116, -0.049463868141174316, -0.5549032092094421, 0.028482526540756226, -0.2950807213783264, -0.6654099225997925, 0.019461316987872124, 3.0, 0.9972187876701355, 4.87257619240312e+252, 2.5769858248112227e+161, 8.017786051689719e-96, 6.013470016991582e-154]], 'trackIndexes': [255.0, 255.0, 0.0, 0.0, 0.0, 0.0, 0.0, 0.0, 0.0]}",0,670,9,1,"[255.0, 255.0, 0.0, 0.0, 0.0, 0.0, 0.0, 0.0, 0.0]",,1754507401556.3667,0.0,0.011621344834566116,3.1134965419769287,-0.3277251124382019,0.028482526540756226,-0.5549032092094421,-0.049463868141174316,0.019461316987872124,-0.6654099225997925,-0.2950807213783264,0.0,3.323078155517578,-1.6862154006958008,-0.7670041918754578,16.25,0.0,3.2848119735717773,-1.4069080352783203,-0.7670041918754578,21.0,0.0,3.095269203186035,-1.0886192321777344,-0.7670041918754578,19.5,0.0,3.1735897064208984,-1.0961294174194336,-0.7670041918754578,26.5,0.0,3.251194953918457,-1.077890396118164,-0.7670041918754578,25.25,0.0,2.95865535736084,0.07510185241699219,-0.7670041918754578,12.75,0.0,3.4886598587036133,-1.0671615600585938,0.0,21.0,0.0,3.4117698669433594,-0.7170438766479492,0.0,22.5,0.0,3.266572952270508,-0.20384788513183594,0.0,22.25,,,,,,,,,,,,,,,
"{'error': 0, 'frameNum': 671, 'pointCloud': [[-1.2638568878173828, 3.1328201293945312, 0.0, -0.9587552398443222, 22.5, 66.0, 255.0], [-1.3675689697265625, 3.2497644424438477, 0.0, -0.7670041918754578, 15.75, 67.0, 255.0], [-0.948786735534668, 2.9522180557250977, 0.0, -1.1505062878131866, 19.5, 65.0, 255.0], [-0.995635986328125, 3.0269622802734375, 0.0, -0.9587552398443222, 27.0, 65.0, 255.0], [-1.132965087890625, 3.0548572540283203, 0.0, -0.9587552398443222, 26.5, 65.0, 255.0], [0.1652240753173828, 2.7791261672973633, 0.0, -0.9587552398443222, 14.75, 66.0, 255.0]], 'numDetectedPoints': 6, 'numDetectedTracks': 1, 'trackData': [[0.0, -0.5332459211349487, 3.036879301071167, 0.010229364037513733, -0.365847647190094, -0.7039973735809326, 0.026064619421958923, -0.5060423016548157, -0.7938731908798218, 0.017367463558912277, 3.0, 0.9974969029426575, 4.87257619240312e+252, 2.5769858248112227e+161, 8.017786051689719e-96, 6.013470016991582e-154]], 'trackIndexes': [0.0, 0.0, 0.0, 0.0, 0.0, 0.0]}",0,671,6,1,"[0.0, 0.0, 0.0, 0.0, 0.0, 0.0]",,1754507401652.8816,0.0,0.010229364037513733,3.036879301071167,-0.5332459211349487,0.026064619421958923,-0.7039973735809326,-0.365847647190094,0.017367463558912277,-0.7938731908798218,-0.5060423016548157,0.0,3.1328201293945312,-1.2638568878173828,-0.9587552398443222,22.5,0.0,3.2497644424438477,-1.3675689697265625,-0.7670041918754578,15.75,0.0,2.9522180557250977,-0.948786735534668,-1.1505062878131866,19.5,0.0,3.0269622802734375,-0.995635986328125,-0.9587552398443222,27.0,0.0,3.0548572540283203,-1.132965087890625,-0.9587552398443222,26.5,0.0,2.7791261672973633,0.1652240753173828,-0.9587552398443222,14.75,,,,,,,,,,,,,,,,,,,,,,,,,,,,,,
"{'error': 0, 'frameNum': 672, 'pointCloud': [[-1.2831687927246094, 2.9497146606445312, 0.0, -1.342257335782051, 19.25, 65.0, 255.0], [-1.3060569763183594, 3.1424760818481445, 0.0, -0.5752531439065933, 13.75, 67.0, 255.0], [-1.0743141174316406, 2.936124801635742, 0.0, -1.342257335782051, 22.0, 65.0, 255.0], [-0.7660388946533203, 2.964019775390625, 0.0, -1.1505062878131866, 17.75, 65.0, 255.0], [0.13375282287597656, 2.5556087493896484, 0.0, -1.1505062878131866, 12.25, 66.0, 255.0]], 'numDetectedPoints': 5, 'numDetectedTracks': 1, 'trackData': [[0.0, -0.6299634575843811, 2.936281681060791, 0.00974893756210804, -0.4844602346420288, -0.8778190612792969, 0.024582859128713608, -0.5430086851119995, -0.9343751668930054, 0.015802226960659027, 3.0, 0.9977472424507141, 4.87257619240312e+252, 2.5769858248112227e+161, 8.017786051689719e-96, 6.013470016991582e-154]], 'trackIndexes': [0.0, 0.0, 0.0, 0.0, 0.0]}",0,672,5,1,"[0.0, 0.0, 0.0, 0.0, 0.0]",,1754507401753.3457,0.0,0.00974893756210804,2.936281681060791,-0.6299634575843811,0.024582859128713608,-0.8778190612792969,-0.4844602346420288,0.015802226960659027,-0.9343751668930054,-0.5430086851119995,0.0,2.9497146606445312,-1.2831687927246094,-1.342257335782051,19.25,0.0,3.1424760818481445,-1.3060569763183594,-0.5752531439065933,13.75,0.0,2.936124801635742,-1.0743141174316406,-1.342257335782051,22.0,0.0,2.964019775390625,-0.7660388946533203,-1.1505062878131866,17.75,0.0,2.5556087493896484,0.13375282287597656,-1.1505062878131866,12.25,,,,,,,,,,,,,,,,,,,,,,,,,,,,,,,,,,,
"{'error': 0, 'frameNum': 673, 'pointCloud': [[-1.289963722229004, 2.7952194213867188, 0.0, -1.5340083837509155, 24.5, 65.0, 255.0], [-1.4122724533081055, 2.8417110443115234, 0.0, -1.5340083837509155, 19.0, 66.0, 255.0], [-1.0700225830078125, 2.801656723022461, 0.0, -1.5340083837509155, 23.5, 65.0, 255.0], [-0.8511543273925781, 2.747654914855957, 0.0, -1.5340083837509155, 17.75, 66.0, 255.0]], 'numDetectedPoints': 4, 'numDetectedTracks': 1, 'trackData': [[0.0, -0.7491312026977539, 2.8050103187561035, 0.009642072953283787, -0.6131336092948914, -1.1012225151062012, 0.023453792557120323, -0.5765917301177979, -1.123899221420288, 0.014449192211031914, 3.0, 0.9979725480079651, 4.87257619240312e+252, 2.5769858248112227e+161, 8.017786051689719e-96, 6.013470016991582e-154]], 'trackIndexes': [0.0, 0.0, 0.0, 0.0]}",0,673,4,1,"[0.0, 0.0, 0.0, 0.0]",,1754507401856.8518,0.0,0.009642072953283787,2.8050103187561035,-0.7491312026977539,0.023453792557120323,-1.1012225151062012,-0.6131336092948914,0.014449192211031914,-1.123899221420288,-0.5765917301177979,0.0,2.7952194213867188,-1.289963722229004,-1.5340083837509155,24.5,0.0,2.8417110443115234,-1.4122724533081055,-1.5340083837509155,19.0,0.0,2.801656723022461,-1.0700225830078125,-1.5340083837509155,23.5,0.0,2.747654914855957,-0.8511543273925781,-1.5340083837509155,17.75,,,,,,,,,,,,,,,,,,,,,,,,,,,,,,,,,,,,,,,,
"{'error': 0, 'frameNum': 674, 'pointCloud': [[-1.1157989501953125, 1.9869804382324219, 0.0, -0.19175104796886444, 18.5, 65.0, 255.0], [-1.64794921875, 2.7923583984375, 0.0, -3.068016767501831, 15.75, 68.0, 255.0], [-1.6701221466064453, 2.977609634399414, 0.0, -0.19175104796886444, 14.5, 68.0, 255.0], [-1.1436939239501953, 2.329230308532715, 0.0, -0.19175104796886444, 22.25, 65.0, 255.0], [-1.2388229370117188, 2.4694204330444336, 0.0, -1.9175104796886444, 23.0, 66.0, 255.0], [-1.2220144271850586, 2.6335716247558594, 0.0, -1.9175104796886444, 20.25, 69.0, 255.0], [-1.4247894287109375, 2.6983022689819336, 0.0, -1.9175104796886444, 17.5, 69.0, 255.0], [-0.8919239044189453, 2.2580623626708984, 0.0, -0.7670041918754578, 20.75, 66.0, 255.0], [-0.80108642578125, 2.124667167663574, 0.0, 0.0, 16.0, 65.0, 255.0]], 'numDetectedPoints': 9, 'numDetectedTracks': 1, 'trackData': [[0.0, -0.9899046421051025, 2.628490447998047, 0.007951215840876102, -0.9284484386444092, -1.342360019683838, 0.0207345150411129, -0.7632895708084106, -1.2757148742675781, 0.012401711195707321, 3.0, 0.998175323009491, 4.87257619240312e+252, 2.5769858248112227e+161, 8.017786051689719e-96, 6.013470016991582e-154]], 'trackIndexes': [0.0, 0.0, 0.0, 0.0, 0.0, 0.0, 0.0, 0.0, 0.0]}",0,674,9,1,"[0.0, 0.0, 0.0, 0.0, 0.0, 0.0, 0.0, 0.0, 0.0]",,1754507401954.7952,0.0,0.007951215840876102,2.628490447998047,-0.9899046421051025,0.0207345150411129,-1.342360019683838,-0.9284484386444092,0.012401711195707321,-1.2757148742675781,-0.7632895708084106,0.0,1.9869804382324219,-1.1157989501953125,-0.19175104796886444,18.5,0.0,2.7923583984375,-1.64794921875,-3.068016767501831,15.75,0.0,2.977609634399414,-1.6701221466064453,-0.19175104796886444,14.5,0.0,2.329230308532715,-1.1436939239501953,-0.19175104796886444,22.25,0.0,2.4694204330444336,-1.2388229370117188,-1.9175104796886444,23.0,0.0,2.6335716247558594,-1.2220144271850586,-1.9175104796886444,20.25,0.0,2.6983022689819336,-1.4247894287109375,-1.9175104796886444,17.5,0.0,2.2580623626708984,-0.8919239044189453,-0.7670041918754578,20.75,0.0,2.124667167663574,-0.80108642578125,0.0,16.0,,,,,,,,,,,,,,,
"{'error': 0, 'frameNum': 675, 'pointCloud': [[-1.3636350631713867, 2.472996711730957, 0.0, 0.19175104796886444, 15.0, 68.0, 255.0], [-1.5274286270141602, 2.6210546493530273, 0.0, 0.19175104796886444, 12.25, 68.0, 255.0], [-1.1419057846069336, 2.2444725036621094, 0.0, -1.5340083837509155, 27.0, 65.0, 255.0], [-1.2323856353759766, 2.3453235626220703, 0.0, -0.3835020959377289, 22.75, 66.0, 255.0], [-0.9702444076538086, 2.175450325012207, 0.0, -1.342257335782051, 27.5, 65.0, 255.0], [-0.779271125793457, 2.1303892135620117, 0.0, -1.342257335782051, 26.25, 65.0, 255.0], [-1.3006925582885742, 3.0183792114257812, 0.0, 0.0, 18.0, 72.0, 255.0]], 'numDetectedPoints': 7, 'numDetectedTracks': 1, 'trackData': [[0.0, -1.1008851528167725, 2.455923557281494, 0.007634840905666351, -1.0346145629882812, -1.508842945098877, 0.0194541048258543, -0.7905120253562927, -1.3043159246444702, 0.011161050759255886, 3.0, 0.9983577728271484, 4.87257619240312e+252, 2.5769858248112227e+161, 8.017786051689719e-96, 6.013470016991582e-154]], 'trackIndexes': [0.0, 0.0, 0.0, 0.0, 0.0, 0.0, 0.0]}",0,675,7,1,"[0.0, 0.0, 0.0, 0.0, 0.0, 0.0, 0.0]",,1754507402053.9795,0.0,0.007634840905666351,2.455923557281494,-1.1008851528167725,0.0194541048258543,-1.508842945098877,-1.0346145629882812,0.011161050759255886,-1.3043159246444702,-0.7905120253562927,0.0,2.472996711730957,-1.3636350631713867,0.19175104796886444,15.0,0.0,2.6210546493530273,-1.5274286270141602,0.19175104796886444,12.25,0.0,2.2444725036621094,-1.1419057846069336,-1.5340083837509155,27.0,0.0,2.3453235626220703,-1.2323856353759766,-0.3835020959377289,22.75,0.0,2.175450325012207,-0.9702444076538086,-1.342257335782051,27.5,0.0,2.1303892135620117,-0.779271125793457,-1.342257335782051,26.25,0.0,3.0183792114257812,-1.3006925582885742,0.0,18.0,,,,,,,,,,,,,,,,,,,,,,,,,
"{'error': 0, 'frameNum': 676, 'pointCloud': [[-1.1597871780395508, 1.9980669021606445, 0.0, -1.342257335782051, 24.25, 65.0, 255.0], [-1.2824535369873047, 2.112865447998047, 0.0, -1.9175104796886444, 19.5, 65.0, 255.0], [-1.3990402221679688, 2.280592918395996, 0.0, -1.5340083837509155, 13.0, 69.0, 255.0], [-0.9759664535522461, 1.8932819366455078, 0.0, -0.3835020959377289, 14.25, 74.0, 255.0], [-1.0432004928588867, 1.9472837448120117, 0.0, -1.1505062878131866, 25.25, 65.0, 255.0], [-1.3604164123535156, 2.980828285217285, 0.0, 0.0, 19.5, 70.0, 255.0], [-1.39617919921875, 3.1163692474365234, 0.0, 0.0, 17.25, 70.0, 255.0]], 'numDetectedPoints': 7, 'numDetectedTracks': 1, 'trackData': [[0.0, -1.1864020824432373, 2.2538397312164307, 0.007503770291805267, -1.0659499168395996, -1.7169612646102905, 0.01830361597239971, -0.7402833104133606, -1.3895847797393799, 0.01000116765499115, 3.0, 0.9985219836235046, 4.87257619240312e+252, 2.5769858248112227e+161, 8.017786051689719e-96, 6.013470016991582e-154]], 'trackIndexes': [0.0, 0.0, 0.0, 0.0, 0.0, 0.0, 0.0]}",0,676,7,1,"[0.0, 0.0, 0.0, 0.0, 0.0, 0.0, 0.0]",,1754507402156.6409,0.0,0.007503770291805267,2.2538397312164307,-1.1864020824432373,0.01830361597239971,-1.7169612646102905,-1.0659499168395996,0.01000116765499115,-1.3895847797393799,-0.7402833104133606,0.0,1.9980669021606445,-1.1597871780395508,-1.342257335782051,24.25,0.0,2.112865447998047,-1.2824535369873047,-1.9175104796886444,19.5,0.0,2.280592918395996,-1.3990402221679688,-1.5340083837509155,13.0,0.0,1.8932819366455078,-0.9759664535522461,-0.3835020959377289,14.25,0.0,1.9472837448120117,-1.0432004928588867,-1.1505062878131866,25.25,0.0,2.980828285217285,-1.3604164123535156,0.0,19.5,0.0,3.1163692474365234,-1.39617919921875,0.0,17.25,,,,,,,,,,,,,,,,,,,,,,,,,
"{'error': 0, 'frameNum': 677, 'pointCloud': [[-1.1833906173706055, 1.8661022186279297, 0.0, -0.5752531439065933, 20.75, 65.0, 255.0], [-1.215219497680664, 2.0055770874023438, 0.0, -0.5752531439065933, 18.75, 65.0, 255.0], [-1.1980533599853516, 2.2115707397460938, 0.0, -1.342257335782051, 18.25, 65.0, 255.0], [-1.227736473083496, 2.3717880249023438, 0.0, -1.342257335782051, 12.75, 67.0, 255.0], [-1.352548599243164, 2.9861927032470703, 0.0, 0.0, 20.0, 70.0, 255.0], [-1.4090538024902344, 3.0934810638427734, 0.0, 0.0, 17.75, 70.0, 255.0], [-1.420140266418457, 3.2851696014404297, 0.0, 0.0, 13.5, 70.0, 255.0]], 'numDetectedPoints': 7, 'numDetectedTracks': 1, 'trackData': [[0.0, -1.2801259756088257, 2.080993890762329, 0.007526308298110962, -1.1166930198669434, -1.8407074213027954, 0.017373861744999886, -0.7245456576347351, -1.3710911273956299, 0.009036492556333542, 3.0, 0.9986698031425476, 4.87257619240312e+252, 2.5769858248112227e+161, 8.017786051689719e-96, 6.013470016991582e-154]], 'trackIndexes': [0.0, 0.0, 0.0, 0.0, 0.0, 0.0, 255.0]}",0,677,7,1,"[0.0, 0.0, 0.0, 0.0, 0.0, 0.0, 255.0]",,1754507402252.4338,0.0,0.007526308298110962,2.080993890762329,-1.2801259756088257,0.017373861744999886,-1.8407074213027954,-1.1166930198669434,0.009036492556333542,-1.3710911273956299,-0.7245456576347351,0.0,1.8661022186279297,-1.1833906173706055,-0.5752531439065933,20.75,0.0,2.0055770874023438,-1.215219497680664,-0.5752531439065933,18.75,0.0,2.2115707397460938,-1.1980533599853516,-1.342257335782051,18.25,0.0,2.3717880249023438,-1.227736473083496,-1.342257335782051,12.75,0.0,2.9861927032470703,-1.352548599243164,0.0,20.0,0.0,3.0934810638427734,-1.4090538024902344,0.0,17.75,0.0,3.2851696014404297,-1.420140266418457,0.0,13.5,,,,,,,,,,,,,,,,,,,,,,,,,
"{'error': 0, 'frameNum': 760, 'pointCloud': [[-0.8386373519897461, 3.308415412902832, 0.0, -0.7670041918754578, 17.25, 68.0, 255.0], [-0.6237030029296875, 3.139615058898926, 0.0, -0.7670041918754578, 20.0, 66.0, 255.0], [-0.6312131881713867, 3.4775733947753906, 0.0, -0.5752531439065933, 12.5, 67.0, 255.0], [0.07617473602294922, 2.8145313262939453, 0.0, -0.7670041918754578, 14.25, 67.0, 255.0], [0.0661611557006836, 2.964019775390625, 0.0, -0.5752531439065933, 27.5, 66.0, 255.0], [0.09226799011230469, 2.90071964263916, 0.0, -0.5752531439065933, 28.75, 67.0, 255.0], [0.10406970977783203, 2.913236618041992, 0.0, -0.5752531439065933, 32.25, 66.0, 255.0]], 'numDetectedPoints': 7, 'numDetectedTracks': 1, 'trackData': [[0.0, -0.22282195091247559, 3.115342378616333, 3.3193722629221156e-05, 0.06850549578666687, -0.4450450539588928, -2.1535488485824317e-05, 0.08212022483348846, -0.3975422978401184, -7.56203880882822e-05, 3.0, 0.9999987483024597, 4.87257619240312e+252, 2.5769858248112227e+161, 8.017786051689719e-96, 6.013470016991582e-154]], 'trackIndexes': [0.0, 0.0, 0.0, 0.0, 0.0, 0.0, 0.0]}",0,760,7,1,"[0.0, 0.0, 0.0, 0.0, 0.0, 0.0, 0.0]",True,1754507410556.6826,0.0,3.3193722629221156e-05,3.115342378616333,-0.22282195091247559,-2.1535488485824317e-05,-0.4450450539588928,0.06850549578666687,-7.56203880882822e-05,-0.3975422978401184,0.08212022483348846,0.0,3.308415412902832,-0.8386373519897461,-0.7670041918754578,17.25,0.0,3.139615058898926,-0.6237030029296875,-0.7670041918754578,20.0,0.0,3.4775733947753906,-0.6312131881713867,-0.5752531439065933,12.5,0.0,2.8145313262939453,0.07617473602294922,-0.7670041918754578,14.25,0.0,2.964019775390625,0.0661611557006836,-0.5752531439065933,27.5,0.0,2.90071964263916,0.09226799011230469,-0.5752531439065933,28.75,0.0,2.913236618041992,0.10406970977783203,-0.5752531439065933,32.25,,,,,,,,,,,,,,,,,,,,,,,,,
"{'error': 0, 'frameNum': 761, 'pointCloud': [[-1.1029243469238281, 2.957582473754883, 0.0, -0.9587552398443222, 21.5, 65.0, 255.0], [-1.2688636779785156, 3.130316734313965, 0.0, -0.9587552398443222, 13.25, 68.0, 255.0], [-0.33867359161376953, 2.951502799987793, 0.0, -0.5752531439065933, 30.0, 66.0, 255.0], [-0.12373924255371094, 2.878546714782715, 0.0, -0.7670041918754578, 30.25, 66.0, 255.0], [-0.23639202117919922, 2.911806106567383, 0.0, -0.5752531439065933, 33.75, 66.0, 255.0], [0.032901763916015625, 2.787351608276367, 0.0, -0.9587552398443222, 19.75, 66.0, 255.0], [-0.1380443572998047, 3.0112266540527344, 0.0, 0.0, 29.75, 65.0, 255.0], [-0.1595020294189453, 3.1725168228149414, 0.0, 0.0, 23.75, 66.0, 255.0]], 'numDetectedPoints': 8, 'numDetectedTracks': 1, 'trackData': [[0.0, -0.2481495440006256, 3.031562566757202, 2.4169834432541393e-05, 0.022580131888389587, -0.5604371428489685, -3.633389496826567e-05, 0.03880761191248894, -0.4839564561843872, -7.966666453285143e-05, 3.0, 0.9999988675117493, 4.87257619240312e+252, 2.5769858248112227e+161, 8.017786051689719e-96, 6.013470016991582e-154]], 'trackIndexes': [0.0, 255.0, 0.0, 0.0, 0.0, 0.0, 0.0, 0.0]}",0,761,8,1,"[0.0, 255.0, 0.0, 0.0, 0.0, 0.0, 0.0, 0.0]",,1754507410654.1416,0.0,2.4169834432541393e-05,3.031562566757202,-0.2481495440006256,-3.633389496826567e-05,-0.5604371428489685,0.022580131888389587,-7.966666453285143e-05,-0.4839564561843872,0.03880761191248894,0.0,2.957582473754883,-1.1029243469238281,-0.9587552398443222,21.5,0.0,3.130316734313965,-1.2688636779785156,-0.9587552398443222,13.25,0.0,2.951502799987793,-0.33867359161376953,-0.5752531439065933,30.0,0.0,2.878546714782715,-0.12373924255371094,-0.7670041918754578,30.25,0.0,2.911806106567383,-0.23639202117919922,-0.5752531439065933,33.75,0.0,2.787351608276367,0.032901763916015625,-0.9587552398443222,19.75,0.0,3.0112266540527344,-0.1380443572998047,0.0,29.75,0.0,3.1725168228149414,-0.1595020294189453,0.0,23.75,,,,,,,,,,,,,,,,,,,,
"{'error': 0, 'frameNum': 762, 'pointCloud': [[-1.569986343383789, 2.9861927032470703, 0.0, -0.7670041918754578, 16.0, 67.0, 255.0], [-1.4480352401733398, 3.2501220703125, 0.0, -1.5340083837509155, 12.25, 67.0, 255.0], [-0.9555816650390625, 2.956509590148926, 0.0, -0.9587552398443222, 25.75, 65.0, 255.0], [-1.0260343551635742, 3.040909767150879, 0.0, -0.9587552398443222, 22.75, 66.0, 255.0], [-0.5947351455688477, 2.8982162475585938, 0.0, -0.19175104796886444, 24.0, 66.0, 255.0], [-0.24747848510742188, 2.8095245361328125, 0.0, -1.1505062878131866, 22.0, 66.0, 255.0], [-0.06759166717529297, 2.704739570617676, 0.0, -0.9587552398443222, 16.0, 66.0, 255.0], [-0.39196014404296875, 3.154635429382324, 0.0, 0.0, 25.0, 66.0, 255.0], [-0.23889541625976562, 3.0144453048706055, 0.0, 0.0, 30.5, 66.0, 255.0]], 'numDetectedPoints': 9, 'numDetectedTracks': 1, 'trackData': [[0.0, -0.35266774892807007, 2.9536659717559814, 1.5719113434897736e-05, -0.15285959839820862, -0.660938560962677, -4.919127968605608e-05, -0.10843396186828613, -0.5517741441726685, -8.238806913141161e-05, 3.0, 0.9999989867210388, 4.87257619240312e+252, 2.5769858248112227e+161, 8.017786051689719e-96, 6.013470016991582e-154]], 'trackIndexes': [255.0, 255.0, 0.0, 0.0, 0.0, 0.0, 0.0, 0.0, 0.0]}",0,762,9,1,"[255.0, 255.0, 0.0, 0.0, 0.0, 0.0, 0.0, 0.0, 0.0]",,1754507410751.8745,0.0,1.5719113434897736e-05,2.9536659717559814,-0.35266774892807007,-4.919127968605608e-05,-0.660938560962677,-0.15285959839820862,-8.238806913141161e-05,-0.5517741441726685,-0.10843396186828613,0.0,2.9861927032470703,-1.569986343383789,-0.7670041918754578,16.0,0.0,3.2501220703125,-1.4480352401733398,-1.5340083837509155,12.25,0.0,2.956509590148926,-0.9555816650390625,-0.9587552398443222,25.75,0.0,3.040909767150879,-1.0260343551635742,-0.9587552398443222,22.75,0.0,2.8982162475585938,-0.5947351455688477,-0.19175104796886444,24.0,0.0,2.8095245361328125,-0.24747848510742188,-1.1505062878131866,22.0,0.0,2.704739570617676,-0.06759166717529297,-0.9587552398443222,16.0,0.0,3.154635429382324,-0.39196014404296875,0.0,25.0,0.0,3.0144453048706055,-0.23889541625976562,0.0,30.5,,,,,,,,,,,,,,,
"{'error': 0, 'frameNum': 763, 'pointCloud': [[-1.4948844909667969, 3.0165910720825195, 0.0, -0.3835020959377289, 15.0, 68.0, 255.0], [-1.0803937911987305, 2.767324447631836, 0.0, -0.3835020959377289, 27.75, 66.0, 255.0], [-1.145482063293457, 2.8313398361206055, 0.0, -0.3835020959377289, 26.75, 67.0, 255.0], [-1.2431144714355469, 2.9189586639404297, 0.0, -2.3010125756263733, 19.25, 69.0, 255.0], [-0.5418062210083008, 2.718687057495117, 0.0, -1.1505062878131866, 25.25, 66.0, 255.0], [-0.2682209014892578, 2.6192665100097656, 0.0, -1.1505062878131866, 25.0, 66.0, 255.0], [-0.18918514251708984, 2.553105354309082, 0.0, -0.9587552398443222, 18.75, 66.0, 255.0], [-1.3217926025390625, 3.133535385131836, 0.0, 0.0, 14.75, 70.0, 255.0]], 'numDetectedPoints': 8, 'numDetectedTracks': 1, 'trackData': [[0.0, -0.4967808127403259, 2.845975637435913, 7.988701327121817e-06, -0.3774564862251282, -0.8101747035980225, -5.998356209602207e-05, -0.28196191787719727, -0.6696935892105103, -8.381221414310858e-05, 3.0, 0.9999991059303284, 4.87257619240312e+252, 2.5769858248112227e+161, 8.017786051689719e-96, 6.013470016991582e-154]], 'trackIndexes': [255.0, 0.0, 0.0, 0.0, 0.0, 0.0, 0.0, 0.0]}",0,763,8,1,"[255.0, 0.0, 0.0, 0.0, 0.0, 0.0, 0.0, 0.0]",,1754507410851.8171,0.0,7.988701327121817e-06,2.845975637435913,-0.4967808127403259,-5.998356209602207e-05,-0.8101747035980225,-0.3774564862251282,-8.381221414310858e-05,-0.6696935892105103,-0.28196191787719727,0.0,3.0165910720825195,-1.4948844909667969,-0.3835020959377289,15.0,0.0,2.767324447631836,-1.0803937911987305,-0.3835020959377289,27.75,0.0,2.8313398361206055,-1.145482063293457,-0.3835020959377289,26.75,0.0,2.9189586639404297,-1.2431144714355469,-2.3010125756263733,19.25,0.0,2.718687057495117,-0.5418062210083008,-1.1505062878131866,25.25,0.0,2.6192665100097656,-0.2682209014892578,-1.1505062878131866,25.0,0.0,2.553105354309082,-0.18918514251708984,-0.9587552398443222,18.75,0.0,3.133535385131836,-1.3217926025390625,0.0,14.75,,,,,,,,,,,,,,,,,,,,
"{'error': 0, 'frameNum': 764, 'pointCloud': [[-1.2019872665405273, 1.9254684448242188, 0.0, -0.19175104796886444, 19.75, 65.0, 255.0], [-1.6254186630249023, 2.742648124694824, 0.0, -2.4927636235952377, 15.25, 70.0, 255.0], [-1.3250112533569336, 2.7358531951904297, 0.0, -0.19175104796886444, 18.75, 71.0, 255.0], [-1.0317564010620117, 2.5720596313476562, 0.0, -2.109261527657509, 23.75, 66.0, 255.0], [-1.1522769927978516, 2.6900768280029297, 0.0, -0.19175104796886444, 22.75, 69.0, 255.0], [-0.5553960800170898, 2.386808395385742, 0.0, -1.5340083837509155, 22.75, 66.0, 255.0], [-0.7274150848388672, 2.4704933166503906, 0.0, -1.5340083837509155, 24.25, 66.0, 255.0], [-1.3661384582519531, 1.6629695892333984, 0.0, 0.0, 19.75, 64.0, 255.0], [-1.6543865203857422, 3.2318830490112305, 0.0, 0.0, 16.25, 68.0, 255.0], [-1.3897418975830078, 3.11279296875, 0.0, 0.0, 15.25, 70.0, 255.0]], 'numDetectedPoints': 10, 'numDetectedTracks': 1, 'trackData': [[0.0, -0.6508244276046753, 2.7141835689544678, 1.6844948049765662e-06, -0.5952345132827759, -0.9870882034301758, -6.799890252295882e-05, -0.4334132671356201, -0.8049784898757935, -8.357836486538872e-05, 3.0, 0.9999992251396179, 4.87257619240312e+252, 2.5769858248112227e+161, 8.017786051689719e-96, 6.013470016991582e-154]], 'trackIndexes': [255.0, 255.0, 0.0, 0.0, 0.0, 0.0, 0.0, 255.0, 255.0, 0.0]}",0,764,10,1,"[255.0, 255.0, 0.0, 0.0, 0.0, 0.0, 0.0, 255.0, 255.0, 0.0]",,1754507410955.6223,0.0,1.6844948049765662e-06,2.7141835689544678,-0.6508244276046753,-6.799890252295882e-05,-0.9870882034301758,-0.5952345132827759,-8.357836486538872e-05,-0.8049784898757935,-0.4334132671356201,0.0,1.9254684448242188,-1.2019872665405273,-0.19175104796886444,19.75,0.0,2.742648124694824,-1.6254186630249023,-2.4927636235952377,15.25,0.0,2.7358531951904297,-1.3250112533569336,-0.19175104796886444,18.75,0.0,2.5720596313476562,-1.0317564010620117,-2.109261527657509,23.75,0.0,2.6900768280029297,-1.1522769927978516,-0.19175104796886444,22.75,0.0,2.386808395385742,-0.5553960800170898,-1.5340083837509155,22.75,0.0,2.4704933166503906,-0.7274150848388672,-1.5340083837509155,24.25,0.0,1.6629695892333984,-1.3661384582519531,0.0,19.75,0.0,3.2318830490112305,-1.6543865203857422,0.0,16.25,0.0,3.11279296875,-1.3897418975830078,0.0,15.25,,,,,,,,,,
"{'error': 0, 'frameNum': 765, 'pointCloud': [[-2.075314521789551, 2.967953681945801, 0.0, 0.9587552398443222, 12.75, 68.0, 255.0], [-1.8106698989868164, 2.9718875885009766, 0.0, 0.9587552398443222, 12.25, 69.0, 255.0], [-1.1855363845825195, 2.4411678314208984, 0.0, 0.7670041918754578, 22.0, 66.0, 255.0], [-1.2753009796142578, 2.606034278869629, 0.0, 0.5752531439065933, 17.25, 71.0, 255.0], [-1.3489723205566406, 2.713322639465332, 0.0, 0.5752531439065933, 15.75, 70.0, 255.0], [-0.9284019470214844, 2.335667610168457, 0.0, 0.7670041918754578, 26.0, 65.0, 255.0], [-0.7588863372802734, 2.176523208618164, 0.0, -1.1505062878131866, 24.75, 65.0, 255.0], [-0.7835626602172852, 2.2580623626708984, 0.0, -1.1505062878131866, 27.5, 65.0, 255.0], [-1.2259483337402344, 1.8221139907836914, 0.0, 0.0, 20.25, 65.0, 255.0], [-1.6987323760986328, 3.1850337982177734, 0.0, 0.0, 13.5, 69.0, 255.0], [-1.3918876647949219, 3.0906200408935547, 0.0, 0.0, 14.25, 70.0, 255.0]], 'numDetectedPoints': 11, 'numDetectedTracks': 1, 'trackData': [[0.0, -0.9060404300689697, 2.622138261795044, -4.740464191854699e-06, -1.0163037776947021, -0.963333785533905, -7.627052400493994e-05, -0.7905730605125427, -0.6093473434448242, -8.374712342629209e-05, 3.0, 0.9999992847442627, 4.87257619240312e+252, 2.5769858248112227e+161, 8.017786051689719e-96, 6.013470016991582e-154]], 'trackIndexes': [255.0, 0.0, 0.0, 0.0, 0.0, 0.0, 0.0, 0.0, 0.0, 255.0, 0.0]}",0,765,11,1,"[255.0, 0.0, 0.0, 0.0, 0.0, 0.0, 0.0, 0.0, 0.0, 255.0, 0.0]",,1754507411048.8752,0.0,-4.740464191854699e-06,2.622138261795044,-0.9060404300689697,-7.627052400493994e-05,-0.963333785533905,-1.0163037776947021,-8.374712342629209e-05,-0.6093473434448242,-0.7905730605125427,0.0,2.967953681945801,-2.075314521789551,0.9587552398443222,12.75,0.0,2.9718875885009766,-1.8106698989868164,0.9587552398443222,12.25,0.0,2.4411678314208984,-1.1855363845825195,0.7670041918754578,22.0,0.0,2.606034278869629,-1.2753009796142578,0.5752531439065933,17.25,0.0,2.713322639465332,-1.3489723205566406,0.5752531439065933,15.75,0.0,2.335667610168457,-0.9284019470214844,0.7670041918754578,26.0,0.0,2.176523208618164,-0.7588863372802734,-1.1505062878131866,24.75,0.0,2.2580623626708984,-0.7835626602172852,-1.1505062878131866,27.5,0.0,1.8221139907836914,-1.2259483337402344,0.0,20.25,0.0,3.1850337982177734,-1.6987323760986328,0.0,13.5,0.0,3.0906200408935547,-1.3918876647949219,0.0,14.25,,,,,
"{'error': 0, 'frameNum': 766, 'pointCloud': [[-1.3382434844970703, 2.0896196365356445, 0.0, -0.3835020959377289, 24.75, 64.0, 255.0], [-1.2538433074951172, 2.016305923461914, 0.0, -0.3835020959377289, 25.75, 65.0, 255.0], [-1.2366771697998047, 2.309560775756836, 0.0, -0.19175104796886444, 15.5, 68.0, 255.0], [-0.7882118225097656, 1.9837617874145508, 0.0, -0.7670041918754578, 13.5, 75.0, 255.0], [-0.8711814880371094, 2.041339874267578, 0.0, -0.3835020959377289, 24.75, 65.0, 255.0], [-1.141190528869629, 1.8761157989501953, 0.0, 0.0, 20.25, 65.0, 255.0], [-1.432657241821289, 3.075242042541504, 0.0, 0.0, 14.25, 70.0, 255.0], [-1.6955137252807617, 3.1768083572387695, 0.0, 0.0, 13.0, 70.0, 255.0], [-1.1544227600097656, 2.9783248901367188, 0.0, 0.0, 17.75, 72.0, 255.0]], 'numDetectedPoints': 9, 'numDetectedTracks': 1, 'trackData': [[0.0, -1.0741318464279175, 2.4630661010742188, -9.87020757747814e-06, -1.2177335023880005, -1.1103171110153198, -8.123782026814297e-05, -0.9039105772972107, -0.67673659324646, -8.182921737898141e-05, 3.0, 0.9999993443489075, 4.87257619240312e+252, 2.5769858248112227e+161, 8.017786051689719e-96, 6.013470016991582e-154]], 'trackIndexes': [0.0, 0.0, 0.0, 0.0, 0.0, 0.0, 0.0, 0.0, 0.0]}",0,766,9,1,"[0.0, 0.0, 0.0, 0.0, 0.0, 0.0, 0.0, 0.0, 0.0]",,1754507411150.084,0.0,-9.87020757747814e-06,2.4630661010742188,-1.0741318464279175,-8.123782026814297e-05,-1.1103171110153198,-1.2177335023880005,-8.182921737898141e-05,-0.67673659324646,-0.9039105772972107,0.0,2.0896196365356445,-1.3382434844970703,-0.3835020959377289,24.75,0.0,2.016305923461914,-1.2538433074951172,-0.3835020959377289,25.75,0.0,2.309560775756836,-1.2366771697998047,-0.19175104796886444,15.5,0.0,1.9837617874145508,-0.7882118225097656,-0.7670041918754578,13.5,0.0,2.041339874267578,-0.8711814880371094,-0.3835020959377289,24.75,0.0,1.8761157989501953,-1.141190528869629,0.0,20.25,0.0,3.075242042541504,-1.432657241821289,0.0,14.25,0.0,3.1768083572387695,-1.6955137252807617,0.0,13.0,0.0,2.9783248901367188,-1.1544227600097656,0.0,17.75,,,,,,,,,,,,,,,
"{'error': 0, 'frameNum': 767, 'pointCloud': [[-1.1179447174072266, 1.9801855087280273, 0.0, -0.19175104796886444, 22.25, 65.0, 255.0], [-1.2631416320800781, 2.0002126693725586, 0.0, -0.19175104796886444, 24.75, 65.0, 255.0], [-1.3117790222167969, 2.0885467529296875, 0.0, -0.5752531439065933, 21.25, 65.0, 255.0], [-1.3883113861083984, 2.2580623626708984, 0.0, -0.9587552398443222, 15.0, 66.0, 255.0], [-1.1948347091674805, 1.845717430114746, 0.0, 0.0, 21.75, 64.0, 255.0], [-1.439809799194336, 3.062009811401367, 0.0, 0.0, 14.25, 70.0, 255.0], [-1.1773109436035156, 2.9726028442382812, 0.0, 0.0, 17.5, 72.0, 255.0]], 'numDetectedPoints': 7, 'numDetectedTracks': 1, 'trackData': [[0.0, -1.231262445449829, 2.3094241619110107, -1.4739321159140673e-05, -1.3671618700027466, -1.2420541048049927, -8.493458881275728e-05, -0.9568583965301514, -0.7356473207473755, -7.921124779386446e-05, 3.0, 0.9999994039535522, 4.87257619240312e+252, 2.5769858248112227e+161, 8.017786051689719e-96, 6.013470016991582e-154]], 'trackIndexes': [0.0, 0.0, 0.0, 0.0, 0.0, 0.0, 0.0]}",0,767,7,1,"[0.0, 0.0, 0.0, 0.0, 0.0, 0.0, 0.0]",,1754507411256.4534,0.0,-1.4739321159140673e-05,2.3094241619110107,-1.231262445449829,-8.493458881275728e-05,-1.2420541048049927,-1.3671618700027466,-7.921124779386446e-05,-0.7356473207473755,-0.9568583965301514,0.0,1.9801855087280273,-1.1179447174072266,-0.19175104796886444,22.25,0.0,2.0002126693725586,-1.2631416320800781,-0.19175104796886444,24.75,0.0,2.0885467529296875,-1.3117790222167969,-0.5752531439065933,21.25,0.0,2.2580623626708984,-1.3883113861083984,-0.9587552398443222,15.0,0.0,1.845717430114746,-1.1948347091674805,0.0,21.75,0.0,3.062009811401367,-1.439809799194336,0.0,14.25,0.0,2.9726028442382812,-1.1773109436035156,0.0,17.5,,,,,,,,,,,,,,,,,,,,,,,,,
"{'error': 0, 'frameNum': 768, 'pointCloud': [[-1.1333227157592773, 1.7570257186889648, 0.0, -0.5752531439065933, 16.75, 72.0, 255.0], [-1.2824535369873047, 1.7845630645751953, 0.0, -0.19175104796886444, 25.25, 65.0, 255.0], [-1.3775825500488281, 1.874685287475586, 0.0, -0.19175104796886444, 24.25, 65.0, 255.0], [-1.3550519943237305, 2.064228057861328, 0.0, -0.5752531439065933, 19.75, 66.0, 255.0], [-1.2173652648925781, 2.3474693298339844, 0.0, -0.5752531439065933, 12.75, 69.0, 255.0], [-1.3289451599121094, 1.7387866973876953, 0.0, 0.0, 27.0, 64.0, 255.0], [-0.3368854522705078, 2.9075145721435547, 0.0, 0.0, 25.75, 72.0, 255.0], [-0.25641918182373047, 2.848505973815918, 0.0, 0.0, 26.5, 67.0, 255.0]], 'numDetectedPoints': 8, 'numDetectedTracks': 1, 'trackData': [[0.0, -1.3657878637313843, 2.138719081878662, -1.7637306882534176e-05, -1.4540150165557861, -1.3827863931655884, -8.544722368242219e-05, -0.949880838394165, -0.7971853613853455, -7.484798697987571e-05, 3.0, 0.999999463558197, 4.87257619240312e+252, 2.5769858248112227e+161, 8.017786051689719e-96, 6.013470016991582e-154]], 'trackIndexes': [0.0, 0.0, 0.0, 0.0, 0.0, 0.0, 255.0, 255.0]}",0,768,8,1,"[0.0, 0.0, 0.0, 0.0, 0.0, 0.0, 255.0, 255.0]",,1754507411349.2786,0.0,-1.7637306882534176e-05,2.138719081878662,-1.3657878637313843,-8.544722368242219e-05,-1.3827863931655884,-1.4540150165557861,-7.484798697987571e-05,-0.7971853613853455,-0.949880838394165,0.0,1.7570257186889648,-1.1333227157592773,-0.5752531439065933,16.75,0.0,1.7845630645751953,-1.2824535369873047,-0.19175104796886444,25.25,0.0,1.874685287475586,-1.3775825500488281,-0.19175104796886444,24.25,0.0,2.064228057861328,-1.3550519943237305,-0.5752531439065933,19.75,0.0,2.3474693298339844,-1.2173652648925781,-0.5752531439065933,12.75,0.0,1.7387866973876953,-1.3289451599121094,0.0,27.0,0.0,2.9075145721435547,-0.3368854522705078,0.0,25.75,0.0,2.848505973815918,-0.25641918182373047,0.0,26.5,,,,,,,,,,,,,,,,,,,,
"{'error': 0, 'frameNum': 820, 'pointCloud': [[-1.0875463485717773, 3.6023855209350586, 0.0, -0.19175104796886444, 15.0, 64.0, 255.0], [-1.1265277862548828, 3.704667091369629, 0.0, -0.19175104796886444, 17.0, 67.0, 255.0], [-1.3239383697509766, 3.804445266723633, 0.0, -0.19175104796886444, 16.0, 66.0, 255.0], [0.09620189666748047, 3.130316734313965, 0.0, -0.3835020959377289, 17.25, 66.0, 255.0], [-0.014662742614746094, 3.193974494934082, 0.0, -0.3835020959377289, 26.0, 66.0, 255.0], [0.0997781753540039, 3.1728744506835938, 0.0, -0.3835020959377289, 26.0, 66.0, 255.0], [0.7463693618774414, 3.2422542572021484, 0.0, -0.3835020959377289, 15.25, 65.0, 255.0], [-1.7981529235839844, 3.604888916015625, 0.0, 0.0, 12.25, 67.0, 255.0], [-0.9999275207519531, 3.4782886505126953, 0.0, 0.0, 22.25, 65.0, 255.0], [-1.0088682174682617, 3.622770309448242, 0.0, 0.0, 18.25, 67.0, 255.0]], 'numDetectedPoints': 10, 'numDetectedTracks': 1, 'trackData': [[0.0, 0.08163132518529892, 3.2426505088806152, -2.8634885893552564e-06, 0.08272772282361984, -0.47050103545188904, -7.88648503657896e-06, -0.33839985728263855, -0.453037291765213, -5.331120064511197e-06, 3.0, 0.9999997615814209, 6.013470016999068e-154, 2.9070168157579885e-33, 3.697039077449838e-33, 8.518815042151991e-96]], 'trackIndexes': [255.0, 255.0, 255.0, 0.0, 0.0, 0.0, 0.0, 255.0, 0.0, 0.0]}",0,820,10,1,"[255.0, 255.0, 255.0, 0.0, 0.0, 0.0, 0.0, 255.0, 0.0, 0.0]",True,1754507416551.541,0.0,-2.8634885893552564e-06,3.2426505088806152,0.08163132518529892,-7.88648503657896e-06,-0.47050103545188904,0.08272772282361984,-5.331120064511197e-06,-0.453037291765213,-0.33839985728263855,0.0,3.6023855209350586,-1.0875463485717773,-0.19175104796886444,15.0,0.0,3.704667091369629,-1.1265277862548828,-0.19175104796886444,17.0,0.0,3.804445266723633,-1.3239383697509766,-0.19175104796886444,16.0,0.0,3.130316734313965,0.09620189666748047,-0.3835020959377289,17.25,0.0,3.193974494934082,-0.014662742614746094,-0.3835020959377289,26.0,0.0,3.1728744506835938,0.0997781753540039,-0.3835020959377289,26.0,0.0,3.2422542572021484,0.7463693618774414,-0.3835020959377289,15.25,0.0,3.604888916015625,-1.7981529235839844,0.0,12.25,0.0,3.4782886505126953,-0.9999275207519531,0.0,22.25,0.0,3.622770309448242,-1.0088682174682617,0.0,18.25,,,,,,,,,,
"{'error': 0, 'frameNum': 821, 'pointCloud': [[-1.3325214385986328, 3.801584243774414, 0.0, -0.3835020959377289, 13.25, 67.0, 255.0], [-0.9022951126098633, 3.538370132446289, 0.0, -0.19175104796886444, 21.75, 65.0, 255.0], [-0.9241104125976562, 3.654956817626953, 0.0, -0.3835020959377289, 18.25, 67.0, 255.0], [-0.6237030029296875, 3.425717353820801, 0.0, -0.7670041918754578, 21.25, 65.0, 255.0], [-0.1341104507446289, 3.303408622741699, 0.0, -0.3835020959377289, 21.75, 65.0, 255.0], [0.09012222290039062, 3.2111406326293945, 0.0, -0.3835020959377289, 19.5, 65.0, 255.0], [0.2728700637817383, 3.085613250732422, 0.0, -0.3835020959377289, 12.5, 65.0, 255.0], [-1.0485649108886719, 3.5011768341064453, 0.0, 0.0, 22.75, 65.0, 255.0], [-1.1690855026245117, 3.8548707962036133, 0.0, 0.0, 13.0, 68.0, 255.0], [-0.9688138961791992, 3.643512725830078, 0.0, 0.0, 17.5, 68.0, 255.0]], 'numDetectedPoints': 10, 'numDetectedTracks': 1, 'trackData': [[0.0, -0.08773542940616608, 3.263387441635132, -2.577526629465865e-06, -0.21939617395401, -0.41675323247909546, -7.235921657411382e-06, -0.550335168838501, -0.3714747726917267, -4.666444056056207e-06, 3.0, 0.9999997615814209, 6.013470016999068e-154, 2.9070168157579885e-33, 3.697039077449838e-33, 8.518815042151991e-96]], 'trackIndexes': [255.0, 0.0, 0.0, 0.0, 0.0, 0.0, 0.0, 255.0, 255.0, 0.0]}",0,821,10,1,"[255.0, 0.0, 0.0, 0.0, 0.0, 0.0, 0.0, 255.0, 255.0, 0.0]",,1754507416657.1252,0.0,-2.577526629465865e-06,3.263387441635132,-0.08773542940616608,-7.235921657411382e-06,-0.41675323247909546,-0.21939617395401,-4.666444056056207e-06,-0.3714747726917267,-0.550335168838501,0.0,3.801584243774414,-1.3325214385986328,-0.3835020959377289,13.25,0.0,3.538370132446289,-0.9022951126098633,-0.19175104796886444,21.75,0.0,3.654956817626953,-0.9241104125976562,-0.3835020959377289,18.25,0.0,3.425717353820801,-0.6237030029296875,-0.7670041918754578,21.25,0.0,3.303408622741699,-0.1341104507446289,-0.3835020959377289,21.75,0.0,3.2111406326293945,0.09012222290039062,-0.3835020959377289,19.5,0.0,3.085613250732422,0.2728700637817383,-0.3835020959377289,12.5,0.0,3.5011768341064453,-1.0485649108886719,0.0,22.75,0.0,3.8548707962036133,-1.1690855026245117,0.0,13.0,0.0,3.643512725830078,-0.9688138961791992,0.0,17.5,,,,,,,,,,
"{'error': 0, 'frameNum': 822, 'pointCloud': [[-1.3486146926879883, 3.550887107849121, 0.0, -0.3835020959377289, 13.25, 67.0, 255.0], [-1.1372566223144531, 3.4890174865722656, 0.0, -0.3835020959377289, 14.5, 67.0, 255.0], [-0.7528066635131836, 3.3763647079467773, 0.0, -0.3835020959377289, 14.0, 65.0, 255.0], [0.0940561294555664, 3.026247024536133, 0.0, -0.3835020959377289, 23.75, 66.0, 255.0], [0.0883340835571289, 3.054499626159668, 0.0, -0.3835020959377289, 24.75, 66.0, 255.0], [-0.010013580322265625, 3.152132034301758, 0.0, -0.3835020959377289, 18.5, 65.0, 255.0], [0.16164779663085938, 2.9489994049072266, 0.0, -0.3835020959377289, 14.5, 66.0, 255.0], [-1.4240741729736328, 3.768324851989746, 0.0, 0.0, 14.0, 68.0, 255.0], [-1.0249614715576172, 3.50797176361084, 0.0, 0.0, 21.25, 66.0, 255.0], [-1.0371208190917969, 3.634929656982422, 0.0, 0.0, 17.5, 68.0, 255.0]], 'numDetectedPoints': 10, 'numDetectedTracks': 1, 'trackData': [[0.0, -0.12941987812519073, 3.216034412384033, -2.4160328848665813e-06, -0.30302590131759644, -0.4485877454280853, -6.7107730501447804e-06, -0.5742511749267578, -0.3559412658214569, -4.104216259293025e-06, 3.0, 0.9999997615814209, 6.013470016999068e-154, 2.9070168157579885e-33, 3.697039077449838e-33, 8.518815042151991e-96]], 'trackIndexes': [255.0, 0.0, 0.0, 0.0, 0.0, 0.0, 0.0, 255.0, 0.0, 0.0]}",0,822,10,1,"[255.0, 0.0, 0.0, 0.0, 0.0, 0.0, 0.0, 255.0, 0.0, 0.0]",,1754507416750.081,0.0,-2.4160328848665813e-06,3.216034412384033,-0.12941987812519073,-6.7107730501447804e-06,-0.4485877454280853,-0.30302590131759644,-4.104216259293025e-06,-0.3559412658214569,-0.5742511749267578,0.0,3.550887107849121,-1.3486146926879883,-0.3835020959377289,13.25,0.0,3.4890174865722656,-1.1372566223144531,-0.3835020959377289,14.5,0.0,3.3763647079467773,-0.7528066635131836,-0.3835020959377289,14.0,0.0,3.026247024536133,0.0940561294555664,-0.3835020959377289,23.75,0.0,3.054499626159668,0.0883340835571289,-0.3835020959377289,24.75,0.0,3.152132034301758,-0.010013580322265625,-0.3835020959377289,18.5,0.0,2.9489994049072266,0.16164779663085938,-0.3835020959377289,14.5,0.0,3.768324851989746,-1.4240741729736328,0.0,14.0,0.0,3.50797176361084,-1.0249614715576172,0.0,21.25,0.0,3.634929656982422,-1.0371208190917969,0.0,17.5,,,,,,,,,,
"{'error': 0, 'frameNum': 823, 'pointCloud': [[-1.7545223236083984, 3.3037662506103516, 0.0, -0.5752531439065933, 15.75, 66.0, 255.0], [-1.0342597961425781, 3.4128427505493164, 0.0, -0.5752531439065933, 18.5, 67.0, 255.0], [-0.9709596633911133, 3.2629966735839844, 0.0, -0.5752531439065933, 24.75, 65.0, 255.0], [0.08869171142578125, 2.982974052429199, 0.0, -0.5752531439065933, 20.25, 66.0, 255.0], [0.013589859008789062, 3.060579299926758, 0.0, -0.5752531439065933, 31.75, 66.0, 255.0], [-0.028252601623535156, 3.0777454376220703, 0.0, -0.5752531439065933, 34.5, 65.0, 255.0], [-0.0858306884765625, 3.1456947326660156, 0.0, -0.5752531439065933, 28.5, 65.0, 255.0], [-1.4208555221557617, 3.769397735595703, 0.0, 0.0, 14.0, 68.0, 255.0], [-1.1440515518188477, 3.596663475036621, 0.0, 0.0, 18.25, 68.0, 255.0], [-0.8082389831542969, 3.3566951751708984, 0.0, 0.0, 24.25, 65.0, 255.0], [-1.009225845336914, 3.488302230834961, 0.0, 0.0, 20.75, 67.0, 255.0]], 'numDetectedPoints': 11, 'numDetectedTracks': 1, 'trackData': [[0.0, -0.19202128052711487, 3.163684844970703, -2.2872141016705427e-06, -0.4064990282058716, -0.508903980255127, -6.199083600222366e-06, -0.6111142635345459, -0.3950571119785309, -3.568501597328577e-06, 3.0, 0.9999997615814209, 6.013470016999068e-154, 2.9070168157579885e-33, 3.697039077449838e-33, 8.518815042151991e-96]], 'trackIndexes': [255.0, 0.0, 0.0, 0.0, 0.0, 0.0, 0.0, 255.0, 0.0, 0.0, 0.0]}",0,823,11,1,"[255.0, 0.0, 0.0, 0.0, 0.0, 0.0, 0.0, 255.0, 0.0, 0.0, 0.0]",,1754507416854.7292,0.0,-2.2872141016705427e-06,3.163684844970703,-0.19202128052711487,-6.199083600222366e-06,-0.508903980255127,-0.4064990282058716,-3.568501597328577e-06,-0.3950571119785309,-0.6111142635345459,0.0,3.3037662506103516,-1.7545223236083984,-0.5752531439065933,15.75,0.0,3.4128427505493164,-1.0342597961425781,-0.5752531439065933,18.5,0.0,3.2629966735839844,-0.9709596633911133,-0.5752531439065933,24.75,0.0,2.982974052429199,0.08869171142578125,-0.5752531439065933,20.25,0.0,3.060579299926758,0.013589859008789062,-0.5752531439065933,31.75,0.0,3.0777454376220703,-0.028252601623535156,-0.5752531439065933,34.5,0.0,3.1456947326660156,-0.0858306884765625,-0.5752531439065933,28.5,0.0,3.769397735595703,-1.4208555221557617,0.0,14.0,0.0,3.596663475036621,-1.1440515518188477,0.0,18.25,0.0,3.3566951751708984,-0.8082389831542969,0.0,24.25,0.0,3.488302230834961,-1.009225845336914,0.0,20.75,,,,,
"{'error': 0, 'frameNum': 824, 'pointCloud': [[-0.868678092956543, 3.2958984375, 0.0, -0.5752531439065933, 18.25, 65.0, 255.0], [-0.8486509323120117, 3.5251379013061523, 0.0, -0.5752531439065933, 14.75, 67.0, 255.0], [-1.0335445404052734, 3.6377906799316406, 0.0, -0.7670041918754578, 13.75, 67.0, 255.0], [-0.5854368209838867, 3.1278133392333984, 0.0, -0.5752531439065933, 22.75, 65.0, 255.0], [-0.1251697540283203, 3.03804874420166, 0.0, -0.5752531439065933, 28.0, 66.0, 255.0], [0.03790855407714844, 2.945423126220703, 0.0, -0.5752531439065933, 20.75, 66.0, 255.0], [-0.03218650817871094, 3.000497817993164, 0.0, -0.5752531439065933, 28.25, 66.0, 255.0], [-0.8211135864257812, 3.339529037475586, 0.0, 0.0, 25.0, 65.0, 255.0]], 'numDetectedPoints': 8, 'numDetectedTracks': 1, 'trackData': [[0.0, -0.28296926617622375, 3.1224241256713867, -2.089615463773953e-06, -0.5426166653633118, -0.5536689758300781, -5.596299615717726e-06, -0.6717657446861267, -0.4220364987850189, -3.002589210154838e-06, 3.0, 0.9999997615814209, 6.013470016999068e-154, 2.9070168157579885e-33, 3.697039077449838e-33, 8.518815042151991e-96]], 'trackIndexes': [0.0, 0.0, 0.0, 0.0, 0.0, 0.0, 0.0, 0.0]}",0,824,8,1,"[0.0, 0.0, 0.0, 0.0, 0.0, 0.0, 0.0, 0.0]",,1754507416948.3403,0.0,-2.089615463773953e-06,3.1224241256713867,-0.28296926617622375,-5.596299615717726e-06,-0.5536689758300781,-0.5426166653633118,-3.002589210154838e-06,-0.4220364987850189,-0.6717657446861267,0.0,3.2958984375,-0.868678092956543,-0.5752531439065933,18.25,0.0,3.5251379013061523,-0.8486509323120117,-0.5752531439065933,14.75,0.0,3.6377906799316406,-1.0335445404052734,-0.7670041918754578,13.75,0.0,3.1278133392333984,-0.5854368209838867,-0.5752531439065933,22.75,0.0,3.03804874420166,-0.1251697540283203,-0.5752531439065933,28.0,0.0,2.945423126220703,0.03790855407714844,-0.5752531439065933,20.75,0.0,3.000497817993164,-0.03218650817871094,-0.5752531439065933,28.25,0.0,3.339529037475586,-0.8211135864257812,0.0,25.0,,,,,,,,,,,,,,,,,,,,
"{'error': 0, 'frameNum': 825, 'pointCloud': [[-2.0581483840942383, 3.0977725982666016, 0.0, -0.9587552398443222, 14.25, 66.0, 255.0], [-1.7420053482055664, 3.165721893310547, 0.0, -0.9587552398443222, 18.5, 67.0, 255.0], [-1.3875961303710938, 3.212571144104004, 0.0, -0.7670041918754578, 19.0, 66.0, 255.0], [-0.5925893783569336, 3.128170967102051, 0.0, -0.7670041918754578, 18.25, 66.0, 255.0], [-0.10406970977783203, 2.98154354095459, 0.0, -0.7670041918754578, 27.0, 66.0, 255.0], [-0.03218650817871094, 2.9114484786987305, 0.0, -0.7670041918754578, 25.75, 66.0, 255.0], [-0.08118152618408203, 2.9414892196655273, 0.0, -0.7670041918754578, 30.5, 66.0, 255.0], [0.08940696716308594, 2.7980804443359375, 0.0, -0.7670041918754578, 12.25, 66.0, 255.0]], 'numDetectedPoints': 8, 'numDetectedTracks': 1, 'trackData': [[0.0, -0.31929895281791687, 3.0471322536468506, -2.0127320112806046e-06, -0.5662147998809814, -0.6494024395942688, -5.122315087646712e-06, -0.6300148963928223, -0.49996739625930786, -2.53564098784409e-06, 3.0, 0.9999997615814209, 6.013470016999068e-154, 2.9070168157579885e-33, 3.697039077449838e-33, 8.518815042151991e-96]], 'trackIndexes': [255.0, 255.0, 0.0, 0.0, 0.0, 0.0, 0.0, 0.0]}",0,825,8,1,"[255.0, 255.0, 0.0, 0.0, 0.0, 0.0, 0.0, 0.0]",,1754507417050.0947,0.0,-2.0127320112806046e-06,3.0471322536468506,-0.31929895281791687,-5.122315087646712e-06,-0.6494024395942688,-0.5662147998809814,-2.53564098784409e-06,-0.49996739625930786,-0.6300148963928223,0.0,3.0977725982666016,-2.0581483840942383,-0.9587552398443222,14.25,0.0,3.165721893310547,-1.7420053482055664,-0.9587552398443222,18.5,0.0,3.212571144104004,-1.3875961303710938,-0.7670041918754578,19.0,0.0,3.128170967102051,-0.5925893783569336,-0.7670041918754578,18.25,0.0,2.98154354095459,-0.10406970977783203,-0.7670041918754578,27.0,0.0,2.9114484786987305,-0.03218650817871094,-0.7670041918754578,25.75,0.0,2.9414892196655273,-0.08118152618408203,-0.7670041918754578,30.5,0.0,2.7980804443359375,0.08940696716308594,-0.7670041918754578,12.25,,,,,,,,,,,,,,,,,,,,
"{'error': 0, 'frameNum': 826, 'pointCloud': [[-1.397252082824707, 3.336310386657715, 0.0, -1.1505062878131866, 13.75, 68.0, 255.0], [-1.0313987731933594, 3.072023391723633, 0.0, -1.1505062878131866, 20.25, 65.0, 255.0], [-1.178741455078125, 3.217935562133789, 0.0, -0.9587552398443222, 14.0, 69.0, 255.0], [-0.8196830749511719, 2.934694290161133, 0.0, -0.5752531439065933, 22.0, 65.0, 255.0], [-0.09369850158691406, 2.7712583541870117, 0.0, -0.9587552398443222, 18.75, 65.0, 255.0], [-0.061511993408203125, 2.8252601623535156, 0.0, -0.9587552398443222, 27.5, 66.0, 255.0], [-0.06008148193359375, 2.844572067260742, 0.0, -0.9587552398443222, 27.0, 66.0, 255.0]], 'numDetectedPoints': 7, 'numDetectedTracks': 1, 'trackData': [[0.0, -0.41142576932907104, 2.964427947998047, -1.8289297258888837e-06, -0.6726285219192505, -0.7762336134910583, -4.507683115662076e-06, -0.6581419110298157, -0.626429557800293, -2.0015852442156756e-06, 3.0, 0.9999997615814209, 6.013470016999068e-154, 2.9070168157579885e-33, 3.697039077449838e-33, 8.518815042151991e-96]], 'trackIndexes': [0.0, 0.0, 0.0, 0.0, 0.0, 0.0, 0.0]}",0,826,7,1,"[0.0, 0.0, 0.0, 0.0, 0.0, 0.0, 0.0]",,1754507417150.2004,0.0,-1.8289297258888837e-06,2.964427947998047,-0.41142576932907104,-4.507683115662076e-06,-0.7762336134910583,-0.6726285219192505,-2.0015852442156756e-06,-0.626429557800293,-0.6581419110298157,0.0,3.336310386657715,-1.397252082824707,-1.1505062878131866,13.75,0.0,3.072023391723633,-1.0313987731933594,-1.1505062878131866,20.25,0.0,3.217935562133789,-1.178741455078125,-0.9587552398443222,14.0,0.0,2.934694290161133,-0.8196830749511719,-0.5752531439065933,22.0,0.0,2.7712583541870117,-0.09369850158691406,-0.9587552398443222,18.75,0.0,2.8252601623535156,-0.061511993408203125,-0.9587552398443222,27.5,0.0,2.844572067260742,-0.06008148193359375,-0.9587552398443222,27.0,,,,,,,,,,,,,,,,,,,,,,,,,
"{'error': 0, 'frameNum': 827, 'pointCloud': [[-1.3833045959472656, 3.013014793395996, 0.0, 0.19175104796886444, 16.25, 68.0, 255.0], [-1.1669397354125977, 2.954721450805664, 0.0, -1.1505062878131866, 23.25, 69.0, 255.0], [-1.006007194519043, 2.9103755950927734, 0.0, -1.1505062878131866, 29.5, 66.0, 255.0], [-0.6598234176635742, 2.8488636016845703, 0.0, -1.1505062878131866, 29.25, 66.0, 255.0], [-0.09191036224365234, 2.695441246032715, 0.0, -1.1505062878131866, 28.75, 66.0, 255.0], [-0.16629695892333984, 2.741217613220215, 0.0, -1.1505062878131866, 31.25, 66.0, 255.0], [-0.03325939178466797, 2.6106834411621094, 0.0, -1.1505062878131866, 17.25, 66.0, 255.0]], 'numDetectedPoints': 7, 'numDetectedTracks': 1, 'trackData': [[0.0, -0.4999285042285919, 2.861271619796753, -1.6589059441685094e-06, -0.7554932832717896, -0.9194332361221313, -3.915344223059947e-06, -0.6618211269378662, -0.7505974173545837, -1.5081482160894666e-06, 3.0, 0.9999997615814209, 6.013470016999068e-154, 2.9070168157579885e-33, 3.697039077449838e-33, 8.518815042151991e-96]], 'trackIndexes': [0.0, 0.0, 0.0, 0.0, 0.0, 0.0, 0.0]}",0,827,7,1,"[0.0, 0.0, 0.0, 0.0, 0.0, 0.0, 0.0]",,1754507417256.2134,0.0,-1.6589059441685094e-06,2.861271619796753,-0.4999285042285919,-3.915344223059947e-06,-0.9194332361221313,-0.7554932832717896,-1.5081482160894666e-06,-0.7505974173545837,-0.6618211269378662,0.0,3.013014793395996,-1.3833045959472656,0.19175104796886444,16.25,0.0,2.954721450805664,-1.1669397354125977,-1.1505062878131866,23.25,0.0,2.9103755950927734,-1.006007194519043,-1.1505062878131866,29.5,0.0,2.8488636016845703,-0.6598234176635742,-1.1505062878131866,29.25,0.0,2.695441246032715,-0.09191036224365234,-1.1505062878131866,28.75,0.0,2.741217613220215,-0.16629695892333984,-1.1505062878131866,31.25,0.0,2.6106834411621094,-0.03325939178466797,-1.1505062878131866,17.25,,,,,,,,,,,,,,,,,,,,,,,,,
"{'error': 0, 'frameNum': 828, 'pointCloud': [[-1.2745857238769531, 1.864314079284668, 0.0, -0.19175104796886444, 12.25, 65.0, 255.0], [-1.544952392578125, 3.003716468811035, 0.0, -0.3835020959377289, 14.0, 68.0, 255.0], [-1.1333227157592773, 2.7480125427246094, 0.0, -1.342257335782051, 28.75, 67.0, 255.0], [-1.1962652206420898, 2.7669668197631836, 0.0, -1.342257335782051, 25.25, 69.0, 255.0], [-1.2445449829101562, 2.894282341003418, 0.0, -0.3835020959377289, 16.5, 69.0, 255.0], [-0.75531005859375, 2.7272701263427734, 0.0, -1.5340083837509155, 25.25, 65.0, 255.0], [-0.5260705947875977, 2.4712085723876953, 0.0, -1.5340083837509155, 18.0, 66.0, 255.0], [-0.46813488006591797, 2.596735954284668, 0.0, -1.5340083837509155, 22.75, 66.0, 255.0], [-1.385807991027832, 1.6096830368041992, 0.0, 0.0, 19.5, 64.0, 255.0]], 'numDetectedPoints': 9, 'numDetectedTracks': 1, 'trackData': [[0.0, -0.6707690954208374, 2.7364065647125244, -1.4864547210891033e-06, -0.9608681201934814, -1.115251064300537, -3.325167654111283e-06, -0.7620968222618103, -0.9402692914009094, -1.0376194268246763e-06, 3.0, 0.9999997615814209, 6.013470016999068e-154, 2.9070168157579885e-33, 3.697039077449838e-33, 8.518815042151991e-96]], 'trackIndexes': [255.0, 0.0, 0.0, 0.0, 0.0, 0.0, 0.0, 0.0, 255.0]}",0,828,9,1,"[255.0, 0.0, 0.0, 0.0, 0.0, 0.0, 0.0, 0.0, 255.0]",,1754507417350.798,0.0,-1.4864547210891033e-06,2.7364065647125244,-0.6707690954208374,-3.325167654111283e-06,-1.115251064300537,-0.9608681201934814,-1.0376194268246763e-06,-0.9402692914009094,-0.7620968222618103,0.0,1.864314079284668,-1.2745857238769531,-0.19175104796886444,12.25,0.0,3.003716468811035,-1.544952392578125,-0.3835020959377289,14.0,0.0,2.7480125427246094,-1.1333227157592773,-1.342257335782051,28.75,0.0,2.7669668197631836,-1.1962652206420898,-1.342257335782051,25.25,0.0,2.894282341003418,-1.2445449829101562,-0.3835020959377289,16.5,0.0,2.7272701263427734,-0.75531005859375,-1.5340083837509155,25.25,0.0,2.4712085723876953,-0.5260705947875977,-1.5340083837509155,18.0,0.0,2.596735954284668,-0.46813488006591797,-1.5340083837509155,22.75,0.0,1.6096830368041992,-1.385807991027832,0.0,19.5,,,,,,,,,,,,,,,
