tid,posx,posy,posz,velx,vely,velz,accx,accy,accz,pointx1,pointy1,pointz1,doppler1,snr1,pointx2,pointy2,pointz2,doppler2,snr2,pointx3,pointy3,pointz3,doppler3,snr3,pointx4,pointy4,pointz4,doppler4,snr4,pointx5,pointy5,pointz5,doppler5,snr5,pointx6,pointy6,pointz6,doppler6,snr6,pointx7,pointy7,pointz7,doppler7,snr7,pointx8,pointy8,pointz8,doppler8,snr8,pointx9,pointy9,pointz9,doppler9,snr9,pointx10,pointy10,pointz10,doppler10,snr10,pointx11,pointy11,pointz11,doppler11,snr11,pointx12,pointy12,pointz12,doppler12,snr12,pointx13,pointy13,pointz13,doppler13,snr13,pointx14,pointy14,pointz14,doppler14,snr14
0.0,-0.7606409788131714,3.286116600036621,0.007011925335973501,0.26007750630378723,-0.16828064620494843,-0.09901127219200134,0.1152324303984642,-0.008929690346121788,-0.029371827840805054,0.0,3.402113914489746,-1.621842384338379,-0.19175104796886444,13.25,0.0,3.0927658081054688,-0.32579898834228516,-0.19175104796886444,21.0,0.0,3.1921863555908203,-0.5006790161132812,-0.19175104796886444,18.5,0.0,3.3659934997558594,-0.4820823669433594,-0.5752531439065933,15.75,0.0,3.026247024536133,-0.07081031799316406,-0.19175104796886444,18.5,0.0,3.2644271850585938,-1.452326774597168,0.0,20.25,0.0,3.2966136932373047,-0.9462833404541016,0.0,25.0,,,,,,,,,,,,,,,,,,,,,,,,,,,,,,,,,,,
0.0,-0.559139609336853,3.2970938682556152,-0.001669866032898426,0.5979932546615601,-0.1109745129942894,-0.09954319149255753,0.3365955054759979,0.04477541893720627,-0.028074588626623154,0.0,3.463268280029297,-0.9183883666992188,-0.19175104796886444,12.25,0.0,3.233671188354492,-0.6251335144042969,-0.3835020959377289,14.5,0.0,3.381013870239258,-0.7567405700683594,-0.19175104796886444,17.25,0.0,2.925395965576172,0.07474422454833984,-0.19175104796886444,16.0,0.0,2.9522180557250977,0.08440017700195312,-0.19175104796886444,22.0,0.0,3.0115842819213867,0.009298324584960938,-0.19175104796886444,18.5,0.0,3.280162811279297,-1.438736915588379,0.0,21.0,0.0,3.313779830932617,-1.0639429092407227,0.0,25.0,0.0,3.2236576080322266,-0.37229061126708984,0.0,23.25,,,,,,,,,,,,,,,,,,,,,,,,,
0.0,-0.4553571939468384,3.2660112380981445,-0.007166409865021706,0.7078964710235596,-0.16142627596855164,-0.09363699704408646,0.396801233291626,-0.035317838191986084,-0.020649107173085213,0.0,3.23331356048584,-1.564621925354004,-0.19175104796886444,12.75,0.0,3.222942352294922,-1.106858253479004,-0.3835020959377289,15.5,0.0,3.1621456146240234,-0.5199909210205078,-0.3835020959377289,18.25,0.0,3.0559301376342773,-0.1780986785888672,-0.3835020959377289,22.0,0.0,2.9447078704833984,0.042557716369628906,-0.19175104796886444,14.5,0.0,3.002643585205078,-0.02288818359375,-0.3835020959377289,22.0,0.0,3.2701492309570312,-1.4358758926391602,0.0,20.25,0.0,3.2873153686523438,-1.1408329010009766,0.0,25.5,0.0,3.210783004760742,-0.5053281784057617,0.0,22.5,0.0,3.025531768798828,0.040411949157714844,0.0,27.0,0.0,3.059506416320801,-0.00035762786865234375,0.0,27.75,,,,,,,,,,,,,,,
0.0,-0.31760144233703613,3.237285852432251,-0.010030647739768028,0.865632176399231,-0.19897137582302094,-0.08322956413030624,0.5016719102859497,-0.08605313301086426,-0.00921590719372034,0.0,3.483295440673828,-1.0442733764648438,-0.19175104796886444,12.75,0.0,3.3273696899414062,-0.9773969650268555,-0.19175104796886444,13.25,0.0,2.946138381958008,0.0654458999633789,-0.3835020959377289,21.25,0.0,2.979755401611328,0.04291534423828125,-0.3835020959377289,28.25,0.0,2.99227237701416,0.02968311309814453,-0.3835020959377289,26.5,0.0,3.1009912490844727,-0.09548664093017578,-0.3835020959377289,15.75,0.0,3.177165985107422,-0.6823539733886719,0.0,21.0,0.0,2.9500722885131836,0.045418739318847656,0.0,20.0,0.0,2.9958486557006836,0.03647804260253906,0.0,27.75,,,,,,,,,,,,,,,,,,,,,,,,,
0.0,-0.3353493809700012,3.215237855911255,-0.011438724584877491,0.7166590690612793,-0.1829373836517334,-0.07212796062231064,0.3110400140285492,-0.02338925004005432,0.0009272759780287743,0.0,3.3130645751953125,-1.0635852813720703,-0.19175104796886444,17.0,0.0,3.4232139587402344,-1.2298822402954102,-0.19175104796886444,19.25,0.0,3.4847259521484375,-1.256704330444336,-0.19175104796886444,14.0,0.0,3.1224489212036133,-0.4112720489501953,-0.19175104796886444,21.25,0.0,3.023386001586914,-0.1552104949951172,-0.19175104796886444,27.0,0.0,3.0384063720703125,-0.22423267364501953,-0.19175104796886444,28.0,0.0,2.9636621475219727,-0.07152557373046875,-0.19175104796886444,17.25,0.0,3.226161003112793,-1.3282299041748047,0.0,23.75,0.0,3.1728744506835938,-0.492095947265625,0.0,22.25,0.0,2.9540061950683594,0.031828880310058594,0.0,20.75,,,,,,,,,,,,,,,,,,,,
0.0,-0.18172882497310638,3.192656993865967,-0.01396394893527031,0.9096697568893433,-0.18081384897232056,-0.06286607682704926,0.47806328535079956,-0.007292484864592552,0.0098800053820014,0.0,2.8209686279296875,-2.2455453872680664,-0.19175104796886444,15.75,0.0,3.0040740966796875,0.06830692291259766,-0.19175104796886444,28.75,0.0,3.114938735961914,-0.03719329833984375,-0.19175104796886444,20.0,0.0,2.941131591796875,0.09906291961669922,-0.19175104796886444,23.75,0.0,2.9754638671875,0.09512901306152344,-0.19175104796886444,30.5,0.0,3.1707286834716797,-0.3808736801147461,0.0,22.75,0.0,3.027677536010742,-0.009298324584960938,0.0,29.5,,,,,,,,,,,,,,,,,,,,,,,,,,,,,,,,,,,
0.0,-0.10794509947299957,3.169401168823242,-0.014650126919150352,0.9183732271194458,-0.1820306032896042,-0.05098596215248108,0.43846651911735535,0.0010475022718310356,0.020355012267827988,0.0,2.9844045639038086,-1.4723539352416992,-0.19175104796886444,14.25,0.0,3.2840967178344727,-1.209855079650879,-0.19175104796886444,12.25,0.0,3.492593765258789,-1.107931137084961,-0.19175104796886444,14.0,0.0,2.9125213623046875,0.06687641143798828,-0.19175104796886444,16.75,0.0,2.944350242614746,-0.034332275390625,-0.19175104796886444,22.0,0.0,3.0126571655273438,0.0718832015991211,-0.19175104796886444,18.25,0.0,3.165721893310547,-0.34332275390625,0.0,22.75,0.0,3.0291080474853516,-0.006794929504394531,0.0,29.75,,,,,,,,,,,,,,,,,,,,,,,,,,,,,,
0.0,-0.554425060749054,2.8546035289764404,0.008934780955314636,-0.42156025767326355,-0.5394964218139648,0.025477899238467216,-0.09540919214487076,-0.5826839804649353,0.016588862985372543,0.0,3.163933753967285,-1.234889030456543,-0.19175104796886444,13.75,0.0,2.9250383377075195,-0.9205341339111328,-0.9587552398443222,21.0,0.0,3.0241012573242188,-1.1190176010131836,-0.9587552398443222,17.25,0.0,2.8417110443115234,-0.6251335144042969,-0.7670041918754578,22.0,0.0,2.7762651443481445,-0.2707242965698242,-0.7670041918754578,21.75,0.0,2.6900768280029297,-0.017523765563964844,-0.9587552398443222,18.25,0.0,3.084540367126465,-1.0582208633422852,0.0,23.75,0.0,2.99227237701416,-0.1609325408935547,0.0,25.25,0.0,2.8363466262817383,0.0833272933959961,0.0,29.5,0.0,2.879619598388672,0.0661611557006836,0.0,30.25,0.0,2.7626752853393555,0.09870529174804688,0.0,21.5,,,,,,,,,,,,,,,
0.0,-0.534161388874054,2.782975912094116,0.008595879189670086,-0.30383527278900146,-0.6600509881973267,0.023473860695958138,0.02963309735059738,-0.6960767507553101,0.014517700299620628,0.0,2.8313398361206055,-1.4848709106445312,-0.7670041918754578,13.25,0.0,2.8814077377319336,-0.8600950241088867,-0.9587552398443222,21.25,0.0,2.8409957885742188,-0.676274299621582,-0.9587552398443222,24.25,0.0,2.7240514755249023,-0.2167224884033203,-0.7670041918754578,22.75,0.0,2.592802047729492,0.057578086853027344,-0.7670041918754578,24.0,0.0,2.539515495300293,0.11050701141357422,-0.7670041918754578,19.5,0.0,3.107428550720215,-0.960230827331543,0.0,22.75,0.0,2.732992172241211,0.08654594421386719,0.0,22.5,0.0,2.8263330459594727,0.07402896881103516,0.0,29.5,,,,,,,,,,,,,,,,,,,,,,,,,
0.0,-0.5928043723106384,2.714341402053833,0.008212009444832802,-0.3509441614151001,-0.7316963076591492,0.02152268774807453,-0.013570800423622131,-0.6959006190299988,0.012631326913833618,0.0,2.8252601623535156,-1.0650157928466797,-0.3835020959377289,19.0,0.0,2.887845039367676,-1.2999773025512695,-0.3835020959377289,12.5,0.0,2.7605295181274414,-0.9491443634033203,-0.3835020959377289,23.0,0.0,2.7086734771728516,-0.7385015487670898,-0.3835020959377289,20.5,0.0,2.5827884674072266,-0.1316070556640625,-1.1505062878131866,18.0,0.0,2.4640560150146484,-0.0035762786865234375,-1.1505062878131866,16.75,0.0,2.9726028442382812,-0.18310546875,0.0,23.0,0.0,2.6918649673461914,0.07474422454833984,0.0,24.25,0.0,2.813100814819336,0.07653236389160156,0.0,29.75,0.0,2.873539924621582,0.022172927856445312,0.0,30.5,,,,,,,,,,,,,,,,,,,,
0.0,-0.5769199728965759,2.619194269180298,0.007695895154029131,-0.24457429349422455,-0.8738832473754883,0.019354064017534256,0.09846678376197815,-0.8243411779403687,0.010645562782883644,0.0,2.6682615280151367,-0.9101629257202148,-1.1505062878131866,20.5,0.0,2.7326345443725586,-0.9781122207641602,-1.1505062878131866,20.0,0.0,2.868533134460449,-0.9566545486450195,-0.7670041918754578,15.0,0.0,2.3245811462402344,-0.07545948028564453,-1.1505062878131866,16.75,0.0,2.524137496948242,-0.1856088638305664,-0.9587552398443222,16.0,0.0,2.367854118347168,-0.060439109802246094,-1.1505062878131866,20.0,0.0,3.0105113983154297,-1.0721683502197266,0.0,16.0,0.0,3.2747983932495117,-0.8486509323120117,0.0,12.0,0.0,2.971172332763672,-0.3833770751953125,0.0,20.0,0.0,2.6650428771972656,0.07796287536621094,0.0,24.5,0.0,2.808809280395508,0.0514984130859375,0.0,29.25,,,,,,,,,,,,,,,
0.0,-0.7591266632080078,2.4756948947906494,0.00675687612965703,-0.4921795129776001,-1.1021733283996582,0.016724135726690292,-0.10120514035224915,-1.0176546573638916,0.008494764566421509,0.0,2.4046897888183594,-1.329660415649414,-1.342257335782051,20.0,0.0,2.489447593688965,-1.3990402221679688,-1.5340083837509155,18.0,0.0,2.6493072509765625,-1.4655590057373047,-0.19175104796886444,14.75,0.0,2.338886260986328,-1.159071922302246,-1.342257335782051,21.25,0.0,2.8481483459472656,-1.4837980270385742,-0.19175104796886444,12.25,0.0,2.1708011627197266,-0.5403757095336914,-1.342257335782051,22.0,0.0,2.2602081298828125,-0.6623268127441406,-1.342257335782051,21.0,0.0,2.9811859130859375,-1.1608600616455078,0.0,17.0,0.0,2.9021501541137695,-0.9366273880004883,0.0,19.0,0.0,3.252267837524414,-0.9073019027709961,0.0,12.25,0.0,2.7887821197509766,0.06401538848876953,0.0,27.0,0.0,2.8706789016723633,-0.031828880310058594,0.0,24.25,,,,,,,,,,
0.0,-0.7982025742530823,2.3072357177734375,0.0061442176811397076,-0.42502230405807495,-1.3813400268554688,0.014537783339619637,0.02711254358291626,-1.3048107624053955,0.006646731868386269,0.0,2.189755439758301,-1.0274648666381836,-1.9175104796886444,28.0,0.0,1.9837617874145508,-0.7477998733520508,-1.1505062878131866,13.0,0.0,2.0821094512939453,-0.8482933044433594,-1.1505062878131866,26.0,0.0,2.363920211791992,-0.9598731994628906,-1.9175104796886444,28.75,0.0,2.4368762969970703,-1.0017156600952148,-1.9175104796886444,21.75,0.0,2.5141239166259766,-1.1372566223144531,-2.4927636235952377,14.25,0.0,2.9747486114501953,-1.1708736419677734,0.0,17.5,0.0,2.879977226257324,-1.0167360305786133,0.0,19.5,0.0,3.236532211303711,-0.9362697601318359,0.0,12.5,0.0,2.742290496826172,-0.29790401458740234,0.0,26.75,0.0,2.8542280197143555,-0.30362606048583984,0.0,22.0,,,,,,,,,,,,,,,
0.0,-0.0982910692691803,3.135896921157837,0.00014215358532965183,0.3516342341899872,-0.48777738213539124,0.0005505303270183504,-0.08569877594709396,-0.7961276769638062,0.0004281399887986481,0.0,3.096342086791992,-0.46885013580322266,-0.3835020959377289,12.75,0.0,2.9164552688598633,0.091552734375,-0.3835020959377289,28.75,0.0,2.953648567199707,0.054717063903808594,-0.3835020959377289,24.25,0.0,2.8967857360839844,0.10442733764648438,-0.3835020959377289,25.0,,,,,,,,,,,,,,,,,,,,,,,,,,,,,,,,,,,,,,,,,,,,,,,,,,
0.0,-0.17146113514900208,3.0774168968200684,0.0001472064177505672,0.17136289179325104,-0.5711543560028076,0.0005346543621271849,-0.2266363501548767,-0.7953799366950989,0.00039412244223058224,0.0,3.2454729080200195,-1.3124942779541016,-0.5752531439065933,14.75,0.0,3.043055534362793,-1.028895378112793,-0.5752531439065933,23.0,0.0,3.1957626342773438,-1.0027885437011719,-0.5752531439065933,22.5,0.0,3.1810998916625977,-0.914454460144043,-0.5752531439065933,27.75,0.0,2.754807472229004,0.22137165069580078,-0.5752531439065933,18.25,0.0,2.8095245361328125,0.1577138900756836,-0.5752531439065933,26.0,0.0,2.8159618377685547,0.171661376953125,-0.5752531439065933,25.25,0.0,3.084540367126465,-0.1627206802368164,0.0,26.5,,,,,,,,,,,,,,,,,,,,,,,,,,,,,,
0.0,-0.15159939229488373,2.9930601119995117,0.0001642446150071919,0.15302187204360962,-0.6811630129814148,0.0005304267979227006,-0.22370433807373047,-0.8187819123268127,0.00036868275492452085,0.0,2.925395965576172,-1.4837980270385742,-0.5752531439065933,18.75,0.0,3.074169158935547,-1.485586166381836,-0.7670041918754578,14.75,0.0,2.9397010803222656,-0.5661249160766602,-0.5752531439065933,19.5,0.0,2.8417110443115234,-0.1398324966430664,-0.5752531439065933,26.25,0.0,2.7462244033813477,0.06794929504394531,-0.7670041918754578,20.25,0.0,2.8066635131835938,-0.02110004425048828,-0.7670041918754578,26.75,,,,,,,,,,,,,,,,,,,,,,,,,,,,,,,,,,,,,,,,
0.0,-0.11318471282720566,2.892017364501953,0.00017433286120649427,0.16767720878124237,-0.7998180389404297,0.0005161017179489136,-0.1938684582710266,-0.8458811640739441,0.00033873470965772867,0.0,2.7419328689575195,-1.7588138580322266,-0.7670041918754578,21.25,0.0,2.749800682067871,-1.557469367980957,-0.7670041918754578,22.25,0.0,2.9289722442626953,-1.6440153121948242,-0.7670041918754578,16.5,0.0,2.809882164001465,-0.3955364227294922,-0.7670041918754578,20.5,0.0,2.662539482116699,0.0768899917602539,-0.7670041918754578,22.75,0.0,2.714395523071289,-0.050067901611328125,-0.7670041918754578,24.25,0.0,2.56955623626709,0.1741647720336914,-0.7670041918754578,14.75,,,,,,,,,,,,,,,,,,,,,,,,,,,,,,,,,,,
0.0,-0.09733476489782333,2.786987066268921,0.00016848836094141006,0.14690881967544556,-0.9173457026481628,0.0004818940069526434,-0.19540075957775116,-0.8774491548538208,0.0002986573672387749,0.0,3.013014793395996,-1.9322633743286133,-1.342257335782051,12.25,0.0,2.9572248458862305,-1.6794204711914062,-1.342257335782051,16.0,0.0,2.9010772705078125,-1.5617609024047852,-0.9587552398443222,16.75,0.0,3.0105113983154297,-0.5950927734375,-1.1505062878131866,17.25,0.0,2.7773380279541016,-0.22172927856445312,-0.9587552398443222,21.25,0.0,2.56955623626709,0.05650520324707031,-0.7670041918754578,24.25,0.0,2.61533260345459,0.018596649169921875,-0.9587552398443222,31.0,0.0,2.6428699493408203,-0.010013580322265625,-0.9587552398443222,29.75,0.0,2.754092216491699,-0.11086463928222656,0.0,29.0,0.0,2.649664878845215,-0.033974647521972656,0.0,27.5,,,,,,,,,,,,,,,,,,,,
0.0,-0.2747747302055359,2.6809983253479004,0.00015254314348567277,-0.1896371841430664,-1.0413434505462646,0.00043528113747015595,-0.45892083644866943,-0.9304889440536499,0.00025301254936493933,0.0,2.8917789459228516,-1.3643503189086914,-1.342257335782051,18.25,0.0,3.010869026184082,-1.4609098434448242,-1.342257335782051,13.25,0.0,2.7322769165039062,-1.0188817977905273,-1.5340083837509155,25.0,0.0,2.833127975463867,-1.143336296081543,-1.5340083837509155,21.75,0.0,2.6503801345825195,-0.7120370864868164,-0.7670041918754578,25.25,0.0,2.577066421508789,-0.28574466705322266,-0.7670041918754578,25.5,0.0,2.507328987121582,-0.15914440155029297,-1.342257335782051,22.0,0.0,2.376437187194824,-0.04684925079345703,-1.342257335782051,12.5,,,,,,,,,,,,,,,,,,,,,,,,,,,,,,
0.0,-0.4376456141471863,2.513127088546753,0.00013564650726038963,-0.4592660665512085,-1.3227952718734741,0.0003854325623251498,-0.633661687374115,-1.1993387937545776,0.00020655668049585074,0.0,2.736210823059082,-1.577138900756836,-0.3835020959377289,15.0,0.0,2.544522285461426,-1.0968446731567383,-1.9175104796886444,28.5,0.0,2.63214111328125,-1.1458396911621094,-1.9175104796886444,23.75,0.0,2.7333498001098633,-1.2187957763671875,-1.9175104796886444,19.75,0.0,2.4601221084594727,-0.6387233734130859,-2.3010125756263733,26.5,0.0,2.3031234741210938,-0.33867359161376953,-1.72575943171978,27.0,0.0,2.338886260986328,-0.36084651947021484,-1.9175104796886444,30.0,0.0,2.9418468475341797,-0.9173154830932617,0.0,19.0,,,,,,,,,,,,,,,,,,,,,,,,,,,,,,
0.0,-0.7583311200141907,2.339539051055908,0.0001116405037464574,-0.9725839495658875,-1.5725314617156982,0.0003280848904978484,-1.0015591382980347,-1.3899582624435425,0.00015810804325155914,0.0,2.4526119232177734,-1.3486146926879883,-2.3010125756263733,22.5,0.0,2.52377986907959,-1.4144182205200195,-0.7670041918754578,23.5,0.0,2.6210546493530273,-1.4870166778564453,-0.7670041918754578,20.5,0.0,2.699732780456543,-1.656174659729004,-0.7670041918754578,15.5,0.0,2.0456314086914062,-0.9698867797851562,-1.9175104796886444,27.5,0.0,2.2859573364257812,-1.1415481567382812,-2.3010125756263733,20.75,0.0,1.9211769104003906,-0.8679628372192383,-1.9175104796886444,14.5,0.0,1.9676685333251953,-0.8765459060668945,-1.9175104796886444,32.25,0.0,2.898573875427246,-0.9981393814086914,0.0,19.0,0.0,3.0999183654785156,-0.9709596633911133,0.0,20.0,,,,,,,,,,,,,,,,,,,,
0.0,-1.0411378145217896,2.1632912158966064,0.00010398498125141487,-1.4248262643814087,-1.7082505226135254,0.0002932880015578121,-1.3304126262664795,-1.3584367036819458,0.00012692020391114056,0.0,2.5388002395629883,-1.6554594039916992,0.19175104796886444,12.75,0.0,1.765608787536621,-1.0968446731567383,0.3835020959377289,19.25,0.0,1.8203258514404297,-1.0832548141479492,0.3835020959377289,30.5,0.0,1.9011497497558594,-1.2001991271972656,-2.3010125756263733,23.0,0.0,2.1393299102783203,-1.330733299255371,-1.5340083837509155,14.75,0.0,2.3431777954101562,-1.4455318450927734,-0.3835020959377289,16.25,0.0,2.4704933166503906,-1.4798641204833984,-0.5752531439065933,16.5,0.0,2.8982162475585938,-1.0478496551513672,0.0,19.75,,,,,,,,,,,,,,,,,,,,,,,,,,,,,,
0.0,-1.2094340324401855,1.9615145921707153,9.984536882257089e-05,-1.603060007095337,-1.8749399185180664,0.0002622341853566468,-1.3769488334655762,-1.3799690008163452,9.922584285959601e-05,0.0,1.7641782760620117,-1.1944770812988281,-0.19175104796886444,24.25,0.0,1.9093751907348633,-1.3132095336914062,-0.19175104796886444,20.75,0.0,1.9969940185546875,-1.474142074584961,-2.109261527657509,15.25,0.0,2.1729469299316406,-1.5674829483032227,-0.19175104796886444,12.25,0.0,1.669764518737793,-0.9248256683349609,-0.7670041918754578,18.25,0.0,1.7130374908447266,-0.9913444519042969,-0.7670041918754578,20.5,0.0,2.8123855590820312,-1.48773193359375,0.0,15.5,0.0,2.798795700073242,-1.1304616928100586,0.0,18.0,,,,,,,,,,,,,,,,,,,,,,,,,,,,,,
0.0,-1.3398535251617432,1.7716262340545654,9.323266567662358e-05,-1.6944762468338013,-1.978518009185791,0.00022852930123917758,-1.35293447971344,-1.3241205215454102,7.142435060814023e-05,0.0,1.8689632415771484,-1.5653371810913086,-0.19175104796886444,12.25,0.0,1.461625099182129,-0.9917020797729492,-0.3835020959377289,13.5,0.0,1.7870664596557617,-1.212000846862793,-0.3835020959377289,22.5,0.0,1.8607378005981445,-1.3364553451538086,-0.19175104796886444,17.25,0.0,1.5721321105957031,-0.9977817535400391,-0.19175104796886444,18.75,0.0,1.7094612121582031,-1.032114028930664,-0.3835020959377289,19.0,0.0,2.730846405029297,-1.3257265090942383,0.0,18.75,0.0,2.803802490234375,-1.4766454696655273,0.0,16.25,,,,,,,,,,,,,,,,,,,,,,,,,,,,,,
0.0,-1.4795032739639282,1.5815070867538452,9.36412689043209e-05,-1.7681416273117065,-2.0718796253204346,0.00020495947683230042,-1.3035439252853394,-1.2763230800628662,5.155996768735349e-05,0.0,1.4805793762207031,-1.1504888534545898,-0.19175104796886444,15.75,0.0,1.5474557876586914,-1.2520551681518555,-0.19175104796886444,16.5,0.0,1.5943050384521484,-1.3715028762817383,-0.19175104796886444,21.75,0.0,1.7273426055908203,-1.4355182647705078,-0.19175104796886444,13.0,0.0,2.7437210083007812,-1.2946128845214844,0.0,18.75,0.0,2.7930736541748047,-1.5020370483398438,0.0,16.0,,,,,,,,,,,,,,,,,,,,,,,,,,,,,,,,,,,,,,,,
0.0,-0.07338154315948486,2.7633793354034424,0.009825748391449451,0.4321126937866211,-1.0380305051803589,0.03131174296140671,0.002054452896118164,-1.1686789989471436,0.02646884135901928,0.0,2.964019775390625,-1.2288093566894531,-0.9587552398443222,14.25,0.0,2.9053688049316406,-0.9537935256958008,-1.1505062878131866,19.25,0.0,2.604246139526367,-0.6437301635742188,-1.1505062878131866,21.5,0.0,2.6586055755615234,-0.651240348815918,-1.1505062878131866,24.0,0.0,2.7762651443481445,-0.720977783203125,-1.1505062878131866,20.75,0.0,3.1685829162597656,-0.9351968765258789,0.0,22.25,0.0,3.036975860595703,-0.22780895233154297,0.0,24.0,,,,,,,,,,,,,,,,,,,,,,,,,,,,,,,,,,,
0.0,-0.12694151699543,2.647186517715454,0.009900389239192009,0.2982372045516968,-1.1348917484283447,0.03065984696149826,-0.09424905478954315,-1.1262917518615723,0.024899734184145927,0.0,2.50089168548584,-2.0356178283691406,-1.342257335782051,12.75,0.0,2.6532411575317383,-1.2720823287963867,-1.1505062878131866,21.0,0.0,2.672553062438965,-1.4322996139526367,-1.1505062878131866,17.25,0.0,2.5638341903686523,-0.8718967437744141,-0.9587552398443222,19.0,0.0,2.4465322494506836,-0.5457401275634766,-0.9587552398443222,22.75,0.0,2.341747283935547,0.02968311309814453,-0.9587552398443222,19.25,0.0,2.3986101150512695,-0.07224082946777344,-0.9587552398443222,23.25,0.0,3.175020217895508,-0.9645223617553711,0.0,18.5,0.0,3.003716468811035,-0.6111860275268555,0.0,20.0,,,,,,,,,,,,,,,,,,,,,,,,,
0.0,-0.3531026244163513,2.551701307296753,0.009286956861615181,-0.06600028276443481,-1.190384864807129,0.029270891100168228,-0.35059231519699097,-1.060969352722168,0.023074492812156677,0.0,2.744436264038086,-1.2667179107666016,-1.5340083837509155,15.25,0.0,2.353191375732422,-0.9688138961791992,-0.3835020959377289,25.0,0.0,2.495884895324707,-1.0374784469604492,-1.5340083837509155,21.25,0.0,2.626776695251465,-1.1222362518310547,-1.5340083837509155,18.25,0.0,2.3249387741088867,-0.6515979766845703,-1.1505062878131866,25.75,0.0,2.299189567565918,-0.2728700637817383,-1.1505062878131866,21.5,,,,,,,,,,,,,,,,,,,,,,,,,,,,,,,,,,,,,,,,
0.0,-0.5430015325546265,2.404172658920288,0.008318856358528137,-0.3490644693374634,-1.3755282163619995,0.02725609578192234,-0.524336040019989,-1.1750959157943726,0.02095939591526985,0.0,2.4651288986206055,-1.3886690139770508,-0.9587552398443222,21.0,0.0,2.5423765182495117,-1.5424489974975586,-0.9587552398443222,16.0,0.0,2.339959144592285,-1.1780261993408203,-2.8762657195329666,25.0,0.0,2.4347305297851562,-1.245260238647461,-1.5340083837509155,23.0,0.0,2.258419990539551,-0.6959438323974609,-1.1505062878131866,24.75,0.0,2.1271705627441406,-0.5489587783813477,-1.72575943171978,27.0,0.0,1.6772747039794922,-1.3200044631958008,0.0,22.25,0.0,2.810239791870117,-1.2563467025756836,0.0,20.0,,,,,,,,,,,,,,,,,,,,,,,,,,,,,,
0.0,-0.8271821141242981,2.2848849296569824,0.007552407216280699,-0.7761158347129822,-1.4373857975006104,0.025761784985661507,-0.8149658441543579,-1.107848048210144,0.019294410943984985,0.0,2.346038818359375,-1.6225576400756836,0.19175104796886444,18.0,0.0,2.5033950805664062,-1.6815662384033203,0.19175104796886444,14.0,0.0,2.2498369216918945,-1.2420415878295898,-2.109261527657509,21.0,0.0,2.352476119995117,-1.3854503631591797,0.19175104796886444,19.5,0.0,1.8786191940307617,-0.8296966552734375,-1.342257335782051,14.5,0.0,2.013087272644043,-0.8107423782348633,-1.5340083837509155,26.75,0.0,2.156853675842285,-0.8658170700073242,-1.5340083837509155,24.0,0.0,2.794504165649414,-1.2888908386230469,0.0,20.75,0.0,2.977609634399414,-1.2656450271606445,0.0,20.5,,,,,,,,,,,,,,,,,,,,,,,,,
0.0,-1.0303163528442383,2.108147382736206,0.008725292049348354,-1.1047961711883545,-1.5287703275680542,0.026251643896102905,-1.0447993278503418,-1.0330842733383179,0.018649352714419365,0.0,1.7327070236206055,-1.1866092681884766,0.3835020959377289,25.75,0.0,1.71661376953125,-1.0181665420532227,-0.7670041918754578,18.75,0.0,1.924753189086914,-1.2191534042358398,0.3835020959377289,19.25,0.0,1.7126798629760742,-0.8836984634399414,-0.7670041918754578,15.75,0.0,2.7440786361694336,-1.3153553009033203,0.0,20.25,0.0,2.8084516525268555,-1.4870166778564453,0.0,16.75,,,,,,,,,,,,,,,,,,,,,,,,,,,,,,,,,,,,,,,,
0.0,-1.2282274961471558,1.9413833618164062,0.008556200191378593,-1.3934763669967651,-1.6068849563598633,0.025227397680282593,-1.2249319553375244,-0.9713289141654968,0.017314698547124863,0.0,1.763463020324707,-1.2888908386230469,-0.19175104796886444,19.75,0.0,1.9526481628417969,-1.3153553009033203,-0.19175104796886444,16.75,0.0,2.0989179611206055,-1.3679265975952148,-0.19175104796886444,15.0,0.0,2.2290945053100586,-1.4698505401611328,-0.19175104796886444,12.25,0.0,1.6683340072631836,-1.0503530502319336,-0.19175104796886444,15.25,0.0,1.6064643859863281,-0.8586645126342773,-0.5752531439065933,15.75,0.0,2.681136131286621,-1.7105340957641602,0.0,15.5,0.0,2.6857852935791016,-1.404404640197754,0.0,19.5,,,,,,,,,,,,,,,,,,,,,,,,,,,,,,
0.0,-0.5747088193893433,2.9070141315460205,0.00012454450188670307,-0.35083189606666565,-0.3044475317001343,0.00046048895455896854,-0.13927918672561646,-0.10026232898235321,0.0003214683965779841,0.0,3.040194511413574,-1.153707504272461,-0.3835020959377289,19.75,0.0,3.116726875305176,-1.2749433517456055,-0.3835020959377289,14.75,0.0,3.585219383239746,-1.5177726745605469,-0.3835020959377289,13.25,0.0,3.7010908126831055,-1.5900135040283203,-0.3835020959377289,14.75,0.0,2.9990673065185547,-0.870823860168457,-0.3835020959377289,21.0,0.0,2.8531551361083984,-0.29969215393066406,-0.3835020959377289,20.0,0.0,2.668619155883789,0.036835670471191406,-0.3835020959377289,23.25,0.0,2.701878547668457,0.031828880310058594,-0.3835020959377289,24.5,0.0,2.58636474609375,0.0940561294555664,-0.3835020959377289,13.5,0.0,3.257632255554199,-1.4823675155639648,0.0,15.25,0.0,3.1714439392089844,-1.2820959091186523,0.0,16.0,0.0,3.0748844146728516,-1.0364055633544922,0.0,22.25,0.0,2.736210823059082,0.12195110321044922,0.0,21.75,0.0,2.797365188598633,0.12874603271484375,0.0,27.75
0.0,-0.5211262106895447,2.869184732437134,0.0001257949334103614,-0.2041197419166565,-0.35303258895874023,0.00043925526551902294,0.0035270601511001587,-0.17000684142112732,0.00029179485864005983,0.0,2.8324127197265625,-1.3017654418945312,-0.5752531439065933,20.25,0.0,2.956509590148926,-1.2810230255126953,-0.7670041918754578,15.75,0.0,3.1456947326660156,-1.2813806533813477,-0.19175104796886444,12.75,0.0,3.6706924438476562,-1.152634620666504,-0.3835020959377289,12.25,0.0,2.5981664657592773,0.03540515899658203,-0.5752531439065933,24.0,0.0,2.6464462280273438,0.007152557373046875,-0.5752531439065933,33.0,0.0,2.647519111633301,-0.0021457672119140625,-0.5752531439065933,32.75,0.0,2.7437210083007812,0.16736984252929688,-0.5752531439065933,23.0,0.0,3.502964973449707,-1.3933181762695312,0.0,12.5,0.0,2.9726028442382812,-0.9359121322631836,0.0,23.5,0.0,3.085613250732422,-1.0793209075927734,0.0,19.5,,,,,,,,,,,,,,,
0.0,-0.5403625965118408,2.8120224475860596,0.00013516044418793172,-0.19703005254268646,-0.42264524102211,0.00042645601206459105,0.014644153416156769,-0.23936858773231506,0.00026832849835045636,0.0,2.825617790222168,-1.283884048461914,-0.5752531439065933,21.5,0.0,2.924680709838867,-1.3282299041748047,-0.5752531439065933,15.75,0.0,2.7669668197631836,-1.0246038436889648,-0.5752531439065933,19.5,0.0,2.5606155395507812,-0.017881393432617188,-0.5752531439065933,18.25,0.0,2.5960206985473633,-0.027179718017578125,-0.5752531439065933,24.75,0.0,2.633213996887207,-0.017881393432617188,-0.5752531439065933,21.75,0.0,3.496885299682617,-1.3833045959472656,0.0,12.75,0.0,2.9697418212890625,-0.9566545486450195,0.0,24.5,0.0,2.8209686279296875,-0.09620189666748047,0.0,25.5,0.0,2.6929378509521484,0.05829334259033203,0.0,30.75,,,,,,,,,,,,,,,,,,,,
0.0,-0.5157380104064941,2.7410662174224854,0.00013494526501744986,-0.11296352744102478,-0.5070216655731201,0.0004014387959614396,0.09149631857872009,-0.3172428011894226,0.00023918983060866594,0.0,2.6907920837402344,-1.4551877975463867,-0.7670041918754578,18.5,0.0,2.8792619705200195,-1.3736486434936523,-0.7670041918754578,14.25,0.0,2.6543140411376953,-1.033186912536621,-0.7670041918754578,21.0,0.0,2.58636474609375,-0.15306472778320312,-0.5752531439065933,28.75,0.0,2.4361610412597656,0.04971027374267578,-0.7670041918754578,17.75,0.0,2.5234222412109375,-0.009298324584960938,-0.5752531439065933,30.0,0.0,2.5452375411987305,-0.06186962127685547,-0.5752531439065933,33.5,,,,,,,,,,,,,,,,,,,,,,,,,,,,,,,,,,,
0.0,-0.49187934398651123,2.6649832725524902,0.0001365826465189457,-0.03686805069446564,-0.5998691320419312,0.0003781684208661318,0.15623030066490173,-0.40209031105041504,0.00021238990302663296,0.0,2.8363466262817383,-1.124739646911621,-1.1505062878131866,16.0,0.0,2.731204032897949,-0.9695291519165039,-1.1505062878131866,18.5,0.0,2.6056766510009766,-0.5074739456176758,-0.5752531439065933,21.5,0.0,2.5080442428588867,-0.23889541625976562,-0.7670041918754578,25.5,0.0,2.393960952758789,0.07545948028564453,-0.7670041918754578,15.25,0.0,2.4733543395996094,-0.034332275390625,-0.7670041918754578,24.5,0.0,2.4039745330810547,0.025033950805664062,0.0,16.0,0.0,2.534151077270508,0.044345855712890625,0.0,25.25,,,,,,,,,,,,,,,,,,,,,,,,,,,,,,
0.0,-0.597827672958374,2.5627269744873047,0.00012887865887023509,-0.19650079309940338,-0.7351991534233093,0.00034378678537905216,0.013238102197647095,-0.516579270362854,0.00018080428708344698,0.0,2.74658203125,-1.6493797302246094,-0.19175104796886444,15.5,0.0,2.873539924621582,-1.788496971130371,-0.19175104796886444,12.5,0.0,2.561330795288086,-1.2509822845458984,-0.19175104796886444,21.75,0.0,2.6639699935913086,-1.410841941833496,-0.19175104796886444,18.5,0.0,2.47800350189209,-1.0721683502197266,-0.5752531439065933,26.5,0.0,2.418994903564453,-0.6455183029174805,-1.9175104796886444,29.75,0.0,2.3102760314941406,-0.24569034576416016,-1.1505062878131866,30.0,0.0,2.347111701965332,-0.33080577850341797,-1.1505062878131866,32.75,0.0,2.8238296508789062,-1.2874603271484375,0.0,22.75,0.0,2.716183662414551,-1.181960105895996,0.0,22.75,0.0,2.899289131164551,-1.2974739074707031,0.0,20.75,,,,,,,,,,,,,,,
0.0,-0.7566138505935669,2.432962656021118,0.0001187522429972887,-0.42018184065818787,-0.9475634694099426,0.0003062471514567733,-0.15769916772842407,-0.736423134803772,0.00014836918853688985,0.0,2.4651288986206055,-1.1576414108276367,-1.72575943171978,21.75,0.0,2.5763511657714844,-1.3418197631835938,-1.72575943171978,20.0,0.0,2.756953239440918,-1.3818740844726562,-0.19175104796886444,21.75,0.0,2.819538116455078,-1.450181007385254,-0.19175104796886444,19.0,0.0,2.052426338195801,-0.7950067520141602,-1.72575943171978,28.25,0.0,2.3703575134277344,-1.015305519104004,-1.72575943171978,25.5,0.0,2.2172927856445312,-0.7932186126708984,-1.72575943171978,25.5,0.0,2.810239791870117,-1.3085603713989258,0.0,23.25,0.0,2.876758575439453,-1.3217926025390625,0.0,21.0,0.0,3.390669822692871,-1.2917518615722656,0.0,12.25,,,,,,,,,,,,,,,,,,,,
0.0,-0.9773564338684082,2.3365678787231445,0.00010943344386760145,-0.7746762037277222,-0.9848317503929138,0.00027365272399038076,-0.47390252351760864,-0.6526146531105042,0.00012230160064063966,0.0,1.9991397857666016,-1.109004020690918,-1.72575943171978,19.25,0.0,2.5223493576049805,-1.4655590057373047,0.19175104796886444,18.25,0.0,2.650022506713867,-1.566767692565918,0.19175104796886444,19.5,0.0,2.7304887771606445,-1.6179084777832031,0.3835020959377289,16.5,0.0,1.8346309661865234,-0.8944272994995117,-0.7670041918754578,15.75,0.0,1.8564462661743164,-0.9545087814331055,-0.7670041918754578,28.25,0.0,2.3556947708129883,-1.1086463928222656,0.3835020959377289,16.5,0.0,2.466559410095215,-1.198410987854004,0.19175104796886444,18.75,0.0,2.8127431869506836,-1.326441764831543,0.0,23.25,0.0,2.8635263442993164,-1.3478994369506836,0.0,21.25,,,,,,,,,,,,,,,,,,,,
0.0,-1.1697590351104736,2.2503395080566406,0.00011351361899869516,-1.0508959293365479,-1.000967264175415,0.00025781936710700393,-0.7005082964897156,-0.5685862302780151,0.00010683400614652783,0.0,2.5942325592041016,-1.6819238662719727,0.3835020959377289,14.75,0.0,2.7129650115966797,-1.7927885055541992,0.19175104796886444,14.0,0.0,1.8922090530395508,-1.0750293731689453,-0.19175104796886444,20.25,0.0,2.000570297241211,-1.1976957321166992,-0.19175104796886444,16.75,0.0,2.4930238723754883,-1.5753507614135742,0.5752531439065933,14.75,0.0,2.6307106018066406,-1.3775825500488281,0.0,18.5,0.0,2.753019332885742,-1.3922452926635742,0.0,22.0,0.0,2.834916114807129,-1.394033432006836,0.0,18.5,0.0,2.5638341903686523,-0.19347667694091797,0.0,26.5,,,,,,,,,,,,,,,,,,,,,,,,,
0.0,-1.2199416160583496,2.0885846614837646,0.00011226279457332566,-1.0117557048797607,-1.1469111442565918,0.00023410093854181468,-0.59723961353302,-0.656347393989563,8.659857849124819e-05,0.0,1.7108917236328125,-1.2699365615844727,-0.3835020959377289,22.75,0.0,1.839280128479004,-1.3375282287597656,-0.3835020959377289,16.25,0.0,1.5739202499389648,-0.8311271667480469,-0.7670041918754578,17.75,0.0,1.6329288482666016,-0.7996559143066406,-0.7670041918754578,21.75,0.0,1.7126798629760742,-0.8640289306640625,-0.7670041918754578,19.25,,,,,,,,,,,,,,,,,,,,,,,,,,,,,,,,,,,,,,,,,,,,,
0.0,-1.2935361862182617,1.9924436807632446,0.00010617041698424146,-0.9922572374343872,-1.1992101669311523,0.00020590401254594326,-0.5056759119033813,-0.6699966788291931,6.504755583591759e-05,0.0,1.9916296005249023,-1.2860298156738281,-0.3835020959377289,13.0,0.0,2.385735511779785,-1.5331506729125977,-1.1505062878131866,14.75,0.0,1.8768310546875,-1.1512041091918945,-0.19175104796886444,18.5,0.0,2.1986961364746094,-1.381516456604004,-1.1505062878131866,14.75,0.0,2.342820167541504,-1.4140605926513672,-1.1505062878131866,17.5,,,,,,,,,,,,,,,,,,,,,,,,,,,,,,,,,,,,,,,,,,,,,
0.0,-1.3314061164855957,1.8573644161224365,9.386979218106717e-05,-0.9313445687294006,-1.2727986574172974,0.00017156671674456447,-0.40802401304244995,-0.6727838516235352,4.134286427870393e-05,0.0,1.6579627990722656,-1.1136531829833984,-0.7670041918754578,15.25,0.0,1.819610595703125,-1.2094974517822266,-0.7670041918754578,19.75,0.0,1.930832862854004,-1.3217926025390625,-0.5752531439065933,16.5,0.0,2.005934715270996,-1.479506492614746,-1.72575943171978,14.75,0.0,1.4104843139648438,-0.8940696716308594,0.19175104796886444,14.5,0.0,1.5166997909545898,-0.9455680847167969,0.5752531439065933,15.0,,,,,,,,,,,,,,,,,,,,,,,,,,,,,,,,,,,,,,,,
0.0,-1.4336767196655273,1.7356125116348267,8.70619696797803e-05,-1.042775273323059,-1.2736058235168457,0.0001467126130592078,-0.5262623429298401,-0.5554822087287903,2.51489309448516e-05,0.0,1.5274286270141602,-1.1572837829589844,1.1505062878131866,22.0,0.0,1.5606880187988281,-1.2148618698120117,1.1505062878131866,24.5,0.0,1.6618967056274414,-1.2563467025756836,-0.5752531439065933,23.5,0.0,1.4737844467163086,-1.0364055633544922,1.1505062878131866,12.75,0.0,1.8396377563476562,-1.3164281845092773,-0.19175104796886444,15.5,,,,,,,,,,,,,,,,,,,,,,,,,,,,,,,,,,,,,,,,,,,,,
0.0,-1.4636309146881104,1.6443116664886475,8.17280015326105e-05,-0.9574890732765198,-1.2495890855789185,0.0001246719475602731,-0.4034620225429535,-0.47808030247688293,1.0973268217639998e-05,0.0,1.5560388565063477,-1.1969804763793945,-0.3835020959377289,14.25,0.0,1.476287841796875,-1.1039972305297852,-0.3835020959377289,15.0,0.0,1.7555952072143555,-1.2520551681518555,-0.3835020959377289,17.5,0.0,1.937270164489746,-1.2699365615844727,-0.3835020959377289,14.25,,,,,,,,,,,,,,,,,,,,,,,,,,,,,,,,,,,,,,,,,,,,,,,,,,
0.0,-1.497647762298584,1.5669353008270264,7.466942770406604e-05,-0.8921259641647339,-1.1953145265579224,0.00010202087287325412,-0.31776750087738037,-0.37447434663772583,-2.6586403691908345e-06,0.0,1.5578269958496094,-1.1851787567138672,-0.19175104796886444,15.75,0.0,1.6025304794311523,-1.2652873992919922,-0.19175104796886444,20.75,0.0,1.646876335144043,-1.295328140258789,-0.19175104796886444,24.25,0.0,1.7495155334472656,-1.3407468795776367,-0.19175104796886444,15.0,0.0,1.8339157104492188,-1.3865232467651367,0.0,16.75,0.0,2.226591110229492,-1.2423992156982422,0.0,14.25,0.0,2.509474754333496,-1.4047622680664062,0.0,14.25,0.0,2.6339292526245117,-1.5728473663330078,0.0,12.25,0.0,2.4733543395996094,-1.159071922302246,0.0,16.0,,,,,,,,,,,,,,,,,,,,,,,,,
0.0,-1.518191933631897,1.506277322769165,7.032344001345336e-05,-0.811539351940155,-1.1085412502288818,8.427120337728411e-05,-0.23022642731666565,-0.24843153357505798,-1.260444969375385e-05,0.0,1.5538930892944336,-1.1812448501586914,-0.19175104796886444,13.0,0.0,1.4798641204833984,-1.1043548583984375,0.19175104796886444,14.0,0.0,1.7151832580566406,-1.2363195419311523,-0.19175104796886444,16.75,0.0,2.071380615234375,-1.410841941833496,0.0,12.5,0.0,2.7583837509155273,-1.7230510711669922,0.0,12.25,0.0,2.420783042907715,-1.2881755828857422,0.0,13.25,0.0,2.5631189346313477,-1.3636350631713867,0.0,13.0,,,,,,,,,,,,,,,,,,,,,,,,,,,,,,,,,,,
0.0,-0.42925432324409485,3.0004045963287354,-7.413816405232865e-08,-0.16110490262508392,-0.3251041769981384,-2.8626212156268593e-07,-0.02367151901125908,-0.20874857902526855,-2.489941834937781e-07,0.0,2.8166770935058594,-1.5664100646972656,-0.7670041918754578,14.75,0.0,3.1245946884155273,-1.2459754943847656,-0.3835020959377289,20.75,0.0,3.1936168670654297,-1.2996196746826172,-0.3835020959377289,18.5,0.0,3.3266544342041016,-1.314997673034668,-0.3835020959377289,16.5,0.0,2.80916690826416,0.019669532775878906,-0.5752531439065933,21.0,0.0,2.728700637817383,0.18274784088134766,-0.5752531439065933,17.25,0.0,2.783060073852539,0.10192394256591797,-0.5752531439065933,23.0,0.0,3.2837390899658203,-0.9977817535400391,0.0,20.5,0.0,3.1682252883911133,-0.5625486373901367,0.0,23.25,0.0,2.9200315475463867,-0.027894973754882812,0.0,23.5,0.0,2.9747486114501953,0.020384788513183594,0.0,29.25,0.0,3.028750419616699,-0.017523765563964844,0.0,28.25,,,,,,,,,,
0.0,-0.45617640018463135,2.947237014770508,-8.190036737687478e-08,-0.17794136703014374,-0.3926311135292053,-2.8351885816846334e-07,-0.03181898221373558,-0.2706812024116516,-2.3211056543459563e-07,0.0,2.871394157409668,-1.430511474609375,-0.3835020959377289,18.25,0.0,2.874612808227539,-1.2331008911132812,-0.3835020959377289,20.5,0.0,2.7408599853515625,-0.05793571472167969,-0.5752531439065933,16.5,0.0,2.7941465377807617,-0.026106834411621094,-0.5752531439065933,23.25,0.0,2.840280532836914,0.036835670471191406,-0.5752531439065933,21.5,0.0,3.338456153869629,-1.3003349304199219,0.0,15.5,0.0,3.2504796981811523,-1.0249614715576172,0.0,18.5,0.0,3.150343894958496,-0.6444454193115234,0.0,24.5,0.0,3.0530691146850586,-0.20956993103027344,0.0,27.75,0.0,2.8781890869140625,-0.04506111145019531,0.0,24.25,0.0,2.9625892639160156,-0.009298324584960938,0.0,28.25,,,,,,,,,,,,,,,
0.0,-0.39119765162467957,2.896374225616455,-7.92015626416287e-08,-0.033173322677612305,-0.4718495309352875,-2.6598434033076046e-07,0.10182556509971619,-0.3648095726966858,-2.0693487101652863e-07,0.0,3.1249523162841797,-1.0181665420532227,-0.7670041918754578,19.0,0.0,3.21042537689209,-1.0968446731567383,-0.7670041918754578,14.75,0.0,3.039121627807617,-0.6480216979980469,-0.5752531439065933,18.75,0.0,2.827763557434082,0.022172927856445312,-0.5752531439065933,21.5,0.0,2.584218978881836,0.19311904907226562,-0.5752531439065933,13.25,0.0,2.6754140853881836,0.10943412780761719,-0.7670041918754578,23.0,0.0,2.7219057083129883,0.08976459503173828,-0.7670041918754578,25.0,0.0,3.2994747161865234,-1.0410547256469727,0.0,16.75,,,,,,,,,,,,,,,,,,,,,,,,,,,,,,
0.0,-0.4095531702041626,2.8296947479248047,-7.362423559698072e-08,-0.04242531210184097,-0.5807568430900574,-2.4423741251666797e-07,0.0936540737748146,-0.48329809308052063,-1.804795033422124e-07,0.0,2.901792526245117,-1.2863874435424805,-0.9587552398443222,19.0,0.0,3.028392791748047,-1.1909008026123047,-0.7670041918754578,18.25,0.0,3.111720085144043,-1.2542009353637695,-0.7670041918754578,13.5,0.0,2.8020143508911133,-0.8676052093505859,-0.7670041918754578,15.25,0.0,2.6074647903442383,0.07295608520507812,-0.7670041918754578,22.75,0.0,2.652883529663086,0.0654458999633789,-0.7670041918754578,21.5,0.0,2.5534629821777344,0.10228157043457031,-0.7670041918754578,17.0,0.0,2.786993980407715,0.17595291137695312,-0.7670041918754578,14.5,0.0,3.3091306686401367,-0.9555816650390625,0.0,17.0,0.0,2.8717517852783203,-0.02110004425048828,0.0,27.25,0.0,2.990841865539551,0.011801719665527344,0.0,21.5,,,,,,,,,,,,,,,
0.0,-0.3688831329345703,2.761911392211914,-7.526607959107423e-08,0.04673846811056137,-0.6562616229057312,-2.3180385255727742e-07,0.16611526906490326,-0.5299330353736877,-1.6135874147948925e-07,0.0,2.8295516967773438,-2.155780792236328,-0.3835020959377289,13.25,0.0,2.830624580383301,-1.9708871841430664,-0.3835020959377289,15.5,0.0,2.6836395263671875,-1.6175508499145508,-1.1505062878131866,16.5,0.0,2.9050111770629883,-1.5474557876586914,-0.3835020959377289,14.25,0.0,2.775907516479492,-0.9309053421020508,-0.7670041918754578,14.75,0.0,2.877473831176758,-0.13589859008789062,-0.7670041918754578,15.25,0.0,2.458333969116211,0.2206563949584961,-0.9587552398443222,19.0,0.0,2.524852752685547,0.1405477523803711,-0.9587552398443222,20.0,0.0,2.673983573913574,0.16701221466064453,-0.7670041918754578,16.0,0.0,2.9518604278564453,-1.462697982788086,0.0,20.5,0.0,2.841353416442871,-1.2756586074829102,0.0,21.0,,,,,,,,,,,,,,,
0.0,-0.45500418543815613,2.664682149887085,-7.092242526596237e-08,-0.08816966414451599,-0.8146386742591858,-2.1052387921827176e-07,0.04550924897193909,-0.6939224004745483,-1.373892644096486e-07,0.0,2.7272701263427734,-1.0263919830322266,-1.342257335782051,28.75,0.0,2.658247947692871,-0.905156135559082,-0.9587552398443222,27.5,0.0,2.834916114807129,-1.028895378112793,-1.342257335782051,23.0,0.0,2.947211265563965,-1.0678768157958984,-1.342257335782051,17.25,0.0,2.5867223739624023,-0.6008148193359375,-0.9587552398443222,23.25,0.0,2.4279356002807617,-0.04756450653076172,-0.9587552398443222,20.75,0.0,2.330660820007324,0.13697147369384766,-0.9587552398443222,17.0,,,,,,,,,,,,,,,,,,,,,,,,,,,,,,,,,,,
0.0,-0.6252432465553284,2.5727007389068604,-6.980131672662537e-08,-0.3662225008010864,-0.9066696763038635,-1.942719194403253e-07,-0.19886207580566406,-0.7189814448356628,-1.1837070701403718e-07,0.0,2.684354782104492,-2.0459890365600586,-0.19175104796886444,12.0,0.0,2.366781234741211,-1.4265775680541992,-1.5340083837509155,21.0,0.0,2.570629119873047,-1.4047622680664062,-1.5340083837509155,19.5,0.0,2.3353099822998047,-1.1515617370605469,-0.9587552398443222,22.75,0.0,2.74658203125,-1.362919807434082,-0.3835020959377289,20.0,0.0,2.8045177459716797,-1.4934539794921875,-0.19175104796886444,16.5,0.0,2.358555793762207,-0.6480216979980469,-0.9587552398443222,21.0,0.0,2.3081302642822266,-0.23746490478515625,-0.9587552398443222,16.0,,,,,,,,,,,,,,,,,,,,,,,,,,,,,,
0.0,-0.8373759984970093,2.4649860858917236,-6.48211440079649e-08,-0.6928096413612366,-1.0100436210632324,-1.7292332188389992e-07,-0.4646226465702057,-0.7501276731491089,-9.715704152313265e-08,0.0,2.3581981658935547,-1.301407814025879,-0.5752531439065933,21.25,0.0,2.4576187133789062,-1.4687776565551758,-0.19175104796886444,19.0,0.0,2.603888511657715,-1.576066017150879,-0.19175104796886444,17.5,0.0,2.707242965698242,-1.6872882843017578,-0.19175104796886444,13.75,0.0,2.2934675216674805,-1.2202262878417969,-1.72575943171978,25.25,0.0,2.293825149536133,-0.8357763290405273,-1.1505062878131866,22.5,0.0,2.177596092224121,-0.5400180816650391,-0.7670041918754578,21.0,,,,,,,,,,,,,,,,,,,,,,,,,,,,,,,,,,,
0.0,-0.988351583480835,2.321117877960205,-6.511741190706744e-08,-0.8863115310668945,-1.1434725522994995,-1.5905922623460356e-07,-0.5975544452667236,-0.7971909642219543,-8.192380818172751e-08,0.0,1.7609596252441406,-1.0521411895751953,-1.72575943171978,14.75,0.0,2.167224884033203,-1.262068748474121,0.19175104796886444,25.0,0.0,2.1986961364746094,-1.406550407409668,-0.5752531439065933,17.25,0.0,2.0284652709960938,-0.9362697601318359,-1.5340083837509155,25.25,0.0,2.121448516845703,-1.1365413665771484,0.19175104796886444,27.75,,,,,,,,,,,,,,,,,,,,,,,,,,,,,,,,,,,,,,,,,,,,,
0.0,-1.0767539739608765,2.135268211364746,-5.901259214624588e-08,-0.9118814468383789,-1.3692607879638672,-1.3624352845909016e-07,-0.537922203540802,-0.9839327335357666,-6.138734676142121e-08,0.0,1.9458532333374023,-1.248478889465332,-1.342257335782051,22.75,0.0,2.0209550857543945,-1.4516115188598633,-1.342257335782051,16.25,0.0,2.1622180938720703,-1.5614032745361328,-0.3835020959377289,13.25,0.0,1.7398595809936523,-0.9748935699462891,-1.9175104796886444,20.5,0.0,1.8532276153564453,-1.0406970977783203,-0.3835020959377289,26.5,0.0,1.701951026916504,-0.8847713470458984,-1.9175104796886444,17.75,0.0,2.7920007705688477,-1.5238523483276367,0.0,18.25,0.0,2.748727798461914,-1.3457536697387695,0.0,21.25,,,,,,,,,,,,,,,,,,,,,,,,,,,,,,
0.0,-1.1968783140182495,1.9744195938110352,-5.613175702023909e-08,-1.0385956764221191,-1.4765139818191528,-1.196047492157959e-07,-0.6253633499145508,-0.9638749957084656,-4.668997632961691e-08,0.0,1.76239013671875,-1.201629638671875,-0.19175104796886444,22.0,0.0,2.077817916870117,-1.4051198959350586,-0.3835020959377289,13.25,0.0,1.6758441925048828,-0.9101629257202148,-0.5752531439065933,15.5,0.0,1.7298460006713867,-0.9866952896118164,-0.3835020959377289,16.75,0.0,1.958012580871582,-1.2230873107910156,-0.3835020959377289,17.75,0.0,2.776622772216797,-1.3021230697631836,0.0,21.75,0.0,2.8274059295654297,-1.4537572860717773,0.0,19.0,,,,,,,,,,,,,,,,,,,,,,,,,,,,,,,,,,,
0.0,-1.2717441320419312,1.8457927703857422,-4.9706201821209106e-08,-1.041542649269104,-1.5300136804580688,-9.888361773846555e-08,-0.5715608596801758,-0.9224430322647095,-3.01395388646597e-08,0.0,1.5749931335449219,-1.2320280075073242,-0.19175104796886444,16.5,0.0,1.6840696334838867,-1.3121366500854492,-0.19175104796886444,20.5,0.0,1.5728473663330078,-1.1333227157592773,-0.3835020959377289,13.0,0.0,1.9690990447998047,-1.2584924697875977,-0.7670041918754578,19.0,0.0,2.1522045135498047,-1.246333122253418,-0.7670041918754578,13.5,0.0,2.8367042541503906,-0.7996559143066406,-2.4927636235952377,12.5,0.0,2.776622772216797,-1.270294189453125,0.0,21.25,0.0,2.793431282043457,-1.4598369598388672,0.0,17.0,,,,,,,,,,,,,,,,,,,,,,,,,,,,,,
0.0,-1.3528028726577759,1.723080039024353,-4.6175617995913854e-08,-1.0749951601028442,-1.5415970087051392,-8.349794455853043e-08,-0.5729838609695435,-0.8224717378616333,-1.8243333954615082e-08,0.0,1.4634132385253906,-1.2395381927490234,-0.19175104796886444,17.5,0.0,1.5546083450317383,-1.2302398681640625,-0.19175104796886444,19.0,0.0,1.8364191055297852,-1.1655092239379883,-0.19175104796886444,21.0,0.0,2.0377635955810547,-1.1826753616333008,-0.3835020959377289,21.75,0.0,2.155423164367676,-1.188039779663086,-0.3835020959377289,15.0,,,,,,,,,,,,,,,,,,,,,,,,,,,,,,,,,,,,,,,,,,,,,
0.0,-1.3951185941696167,1.642817497253418,-4.408782672271627e-08,-1.0429469347000122,-1.4562702178955078,-7.12171512873283e-08,-0.5260792970657349,-0.6310809850692749,-9.22595777552715e-09,0.0,1.5413761138916016,-1.0689496994018555,0.19175104796886444,13.0,0.0,1.6504526138305664,-1.0639429092407227,0.19175104796886444,13.0,0.0,1.774907112121582,-1.1737346649169922,-0.19175104796886444,16.0,0.0,2.295970916748047,-0.7742643356323242,-0.19175104796886444,15.25,0.0,2.440810203552246,-0.7485151290893555,-0.5752531439065933,14.25,0.0,2.617478370666504,-0.513911247253418,-0.7670041918754578,13.25,0.0,2.784848213195801,-1.5156269073486328,0.0,12.75,,,,,,,,,,,,,,,,,,,,,,,,,,,,,,,,,,,
0.0,-1.4551790952682495,1.567566990852356,-4.096902728178975e-08,-1.0419209003448486,-1.365128755569458,-5.833636862462299e-08,-0.5087506175041199,-0.4583505392074585,-3.773301671117224e-10,0.0,1.4473199844360352,-1.2820959091186523,0.19175104796886444,13.25,0.0,1.500248908996582,-1.3153553009033203,0.19175104796886444,15.25,0.0,1.8707513809204102,-1.101851463317871,-0.19175104796886444,18.0,0.0,2.057790756225586,-1.0807514190673828,0.19175104796886444,17.75,0.0,2.5663375854492188,-1.305699348449707,0.0,13.5,0.0,2.754807472229004,-1.3600587844848633,0.0,13.75,,,,,,,,,,,,,,,,,,,,,,,,,,,,,,,,,,,,,,,,
0.0,-0.5218518376350403,2.7903740406036377,-1.1578260572520094e-09,-0.47835373878479004,-0.5645298361778259,-1.93440197193695e-09,-0.40370887517929077,-0.3581717908382416,-8.222977854188684e-11,0.0,2.8531551361083984,-1.4823675155639648,-0.5752531439065933,13.25,0.0,3.0548572540283203,-1.5921592712402344,-0.5752531439065933,12.5,0.0,2.8581619262695312,-0.9756088256835938,-0.5752531439065933,21.0,0.0,2.819180488586426,-0.7113218307495117,-0.5752531439065933,22.75,0.0,2.715468406677246,-0.10013580322265625,-0.7670041918754578,23.5,0.0,2.63214111328125,0.03325939178466797,-0.7670041918754578,23.25,0.0,2.559542655944824,0.0883340835571289,-0.7670041918754578,16.25,0.0,2.960801124572754,-2.3163557052612305,0.0,12.5,0.0,2.707958221435547,0.03647804260253906,0.0,25.75,0.0,2.5974512100219727,0.0947713851928711,0.0,15.75,,,,,,,,,,,,,,,,,,,,
0.0,-0.5772830843925476,2.7252485752105713,-9.968146308381165e-10,-0.5222084522247314,-0.6309202909469604,-1.4755638932939519e-09,-0.4007977247238159,-0.40899065136909485,2.1671731076366996e-10,0.0,2.4715662002563477,-1.440882682800293,-0.5752531439065933,14.75,0.0,2.8148889541625977,-1.4612674713134766,-0.5752531439065933,16.5,0.0,2.784132957458496,-1.165151596069336,-0.5752531439065933,21.75,0.0,2.7980804443359375,-1.2606382369995117,-0.5752531439065933,21.75,0.0,2.512335777282715,0.04184246063232422,-0.7670041918754578,21.75,0.0,2.53450870513916,0.08726119995117188,-0.7670041918754578,24.75,0.0,2.6189088821411133,0.21350383758544922,-0.5752531439065933,19.25,0.0,3.007650375366211,-2.282381057739258,0.0,12.5,0.0,3.040194511413574,-1.8879175186157227,0.0,15.25,,,,,,,,,,,,,,,,,,,,,,,,,
0.0,-0.6659772396087646,2.615154266357422,-8.384621885682009e-10,-0.5979920625686646,-0.8120955228805542,-1.0447972487170887e-09,-0.40698695182800293,-0.6185922026634216,4.841199108263083e-10,0.0,2.5963783264160156,-1.4244318008422852,-1.5340083837509155,22.0,0.0,2.543807029724121,-1.3142824172973633,-1.5340083837509155,30.0,0.0,2.8492212295532227,-1.3604164123535156,-0.3835020959377289,14.25,0.0,2.536296844482422,-1.074671745300293,-1.5340083837509155,30.25,0.0,2.47800350189209,-0.24747848510742188,-0.7670041918754578,28.5,0.0,2.520918846130371,-0.3848075866699219,-0.7670041918754578,30.0,0.0,2.4061203002929688,-0.18167495727539062,-0.7670041918754578,18.75,0.0,2.9840469360351562,-2.3092031478881836,0.0,13.0,0.0,2.646803855895996,0.09047985076904297,0.0,27.25,,,,,,,,,,,,,,,,,,,,,,,,,
0.0,-0.7227450013160706,2.5307364463806152,-6.861753942821736e-10,-0.6188894510269165,-0.8976036310195923,-6.550603948163314e-10,-0.3797037601470947,-0.6684857606887817,7.048834849143759e-10,0.0,2.693653106689453,-1.0979175567626953,-0.9587552398443222,23.5,0.0,2.79843807220459,-1.154780387878418,-0.9587552398443222,20.0,0.0,2.9393434524536133,-1.1161565780639648,-0.5752531439065933,14.5,0.0,2.5681257247924805,-0.7778406143188477,-1.1505062878131866,25.0,0.0,2.4465322494506836,-0.5972385406494141,-0.7670041918754578,29.25,0.0,2.346038818359375,-0.39696693420410156,-0.7670041918754578,22.0,0.0,2.402186393737793,-0.49674510955810547,-0.7670041918754578,28.75,0.0,3.0008554458618164,-2.29489803314209,0.0,12.5,0.0,2.725839614868164,-0.07402896881103516,0.0,29.0,,,,,,,,,,,,,,,,,,,,,,,,,
0.0,-0.817965030670166,2.4248783588409424,-5.666209168531111e-10,-0.7092864513397217,-0.9937745928764343,-3.387713443103735e-10,-0.4218734800815582,-0.7039610743522644,8.64399996025611e-10,0.0,2.2820234298706055,-1.110076904296875,-0.19175104796886444,24.25,0.0,2.5316476821899414,-1.2788772583007812,-1.1505062878131866,14.25,0.0,2.7140378952026367,-1.3883113861083984,-0.7670041918754578,12.5,0.0,2.4608373641967773,-1.0607242584228516,-1.1505062878131866,20.5,0.0,2.287745475769043,-0.6101131439208984,-0.7670041918754578,26.5,0.0,2.2308826446533203,-0.4913806915283203,-0.7670041918754578,24.75,,,,,,,,,,,,,,,,,,,,,,,,,,,,,,,,,,,,,,,,
0.0,-0.9307395219802856,2.306976556777954,-4.456471858205191e-10,-0.8245048522949219,-1.087636947631836,-4.7162176941561995e-11,-0.4878297746181488,-0.7215911149978638,9.977749737544173e-10,0.0,1.626133918762207,-1.2155771255493164,-0.3835020959377289,12.5,0.0,2.421140670776367,-1.360774040222168,-1.1505062878131866,17.0,0.0,2.3152828216552734,-1.1390447616577148,0.19175104796886444,26.25,0.0,2.3692846298217773,-1.2148618698120117,-1.1505062878131866,22.5,0.0,2.2716522216796875,-0.7932186126708984,-0.7670041918754578,26.75,0.0,2.169013023376465,-0.5682706832885742,-0.7670041918754578,26.5,,,,,,,,,,,,,,,,,,,,,,,,,,,,,,,,,,,,,,,,
0.0,-1.086776852607727,2.1977927684783936,-3.281544480593368e-10,-1.0370850563049316,-1.1122204065322876,2.1348692258449375e-10,-0.6683698892593384,-0.6177548170089722,1.1013218115252243e-09,0.0,2.2115707397460938,-1.2334585189819336,0.5752531439065933,31.0,0.0,2.235531806945801,-1.2971162796020508,0.5752531439065933,23.5,0.0,2.3224353790283203,-1.4351606369018555,-0.19175104796886444,12.25,0.0,2.0238161087036133,-0.9284019470214844,-1.1505062878131866,28.75,0.0,2.1539926528930664,-1.1508464813232422,0.5752531439065933,31.75,0.0,1.9108057022094727,-0.7570981979370117,-1.1505062878131866,20.25,,,,,,,,,,,,,,,,,,,,,,,,,,,,,,,,,,,,,,,,
0.0,-1.220468282699585,2.084561586380005,-2.319179709386887e-10,-1.1744393110275269,-1.151003360748291,4.1964970387553535e-10,-0.7531806230545044,-0.5670704245567322,1.1637985020129804e-09,0.0,1.7559528350830078,-1.0410547256469727,0.3835020959377289,18.0,0.0,1.9598007202148438,-1.1039972305297852,0.3835020959377289,26.5,0.0,2.117156982421875,-1.1926889419555664,-0.3835020959377289,30.25,0.0,2.1593570709228516,-1.2584924697875977,-0.3835020959377289,26.75,0.0,2.189040184020996,-1.358628273010254,-0.3835020959377289,21.0,,,,,,,,,,,,,,,,,,,,,,,,,,,,,,,,,,,,,,,,,,,,,
0.0,-1.2716939449310303,1.9432581663131714,-1.3847029078917217e-10,-1.0861256122589111,-1.2710187435150146,5.977883743568668e-10,-0.568561315536499,-0.6679797768592834,1.2045741071275984e-09,0.0,1.9347667694091797,-1.5456676483154297,-0.5752531439065933,16.25,0.0,1.80816650390625,-1.16729736328125,-1.1505062878131866,27.25,0.0,1.897573471069336,-1.2534856796264648,-1.1505062878131866,21.25,0.0,2.1303892135620117,-1.5953779220581055,-0.5752531439065933,14.25,0.0,1.6794204711914062,-0.9208917617797852,-0.9587552398443222,17.0,0.0,1.7380714416503906,-1.0811090469360352,-0.3835020959377289,22.25,,,,,,,,,,,,,,,,,,,,,,,,,,,,,,,,,,,,,,,,
0.0,-1.3152657747268677,1.8325127363204956,-6.057931933867167e-11,-0.9726595878601074,-1.334521770477295,7.327527473677264e-10,-0.3679758310317993,-0.7111077308654785,1.2134846461009374e-09,0.0,1.753091812133789,-1.3443231582641602,-1.5340083837509155,24.0,0.0,1.6508102416992188,-1.203775405883789,-1.5340083837509155,16.5,0.0,1.9762516021728516,-1.3289451599121094,-0.7670041918754578,23.75,0.0,2.1125078201293945,-1.3353824615478516,-0.7670041918754578,20.5,0.0,2.232670783996582,-1.4040470123291016,-0.7670041918754578,15.75,,,,,,,,,,,,,,,,,,,,,,,,,,,,,,,,,,,,,,,,,,,,,
0.0,-1.3427809476852417,1.7182552814483643,1.2439775771977413e-11,-0.8610634803771973,-1.3709884881973267,8.442683219200831e-10,-0.21353182196617126,-0.6952041387557983,1.2062629783926582e-09,0.0,1.6783475875854492,-1.3185739517211914,-0.9587552398443222,20.25,0.0,1.5978813171386719,-1.0296106338500977,-0.7670041918754578,18.0,0.0,1.613616943359375,-1.1268854141235352,-0.7670041918754578,19.75,0.0,1.8925666809082031,-1.3689994812011719,-0.7670041918754578,18.5,0.0,2.0906925201416016,-1.326441764831543,-0.7670041918754578,13.25,,,,,,,,,,,,,,,,,,,,,,,,,,,,,,,,,,,,,,,,,,,,,
0.0,-1.8038158416748047,0.9771518111228943,8.326105360723091e-10,0.0,0.0,0.0,0.0,0.0,0.0,0.0,3.300189971923828,-1.4394521713256836,-0.7670041918754578,12.75,0.0,3.23331356048584,-1.1401176452636719,-0.7670041918754578,13.75,0.0,3.086686134338379,-0.9037256240844727,-1.5340083837509155,18.5,0.0,2.9550790786743164,-0.13911724090576172,-0.9587552398443222,24.0,0.0,2.856731414794922,0.08690357208251953,-0.9587552398443222,31.0,0.0,2.781987190246582,0.10085105895996094,-0.9587552398443222,21.5,0.0,2.834916114807129,0.10514259338378906,-0.9587552398443222,30.75,,,,,,,,,,,,,,,,,,,,,,,,,,,,,,,,,,,
0.0,-1.8038158416748047,0.9771518111228943,8.326105360723091e-10,0.0,0.0,0.0,0.0,0.0,0.0,0.0,3.140687942504883,-1.0478496551513672,-1.342257335782051,17.25,0.0,3.1946897506713867,-1.179814338684082,-1.342257335782051,15.0,0.0,2.968311309814453,-0.6133317947387695,-1.1505062878131866,16.5,0.0,2.739071846008301,-0.06437301635742188,-0.9587552398443222,20.75,0.0,2.7698278427124023,-0.07045269012451172,-0.9587552398443222,26.25,0.0,2.807736396789551,-0.04684925079345703,-1.1505062878131866,23.75,,,,,,,,,,,,,,,,,,,,,,,,,,,,,,,,,,,,,,,,
0.0,-1.8038158416748047,0.9771518111228943,8.326105360723091e-10,0.0,0.0,0.0,0.0,0.0,0.0,0.0,3.1585693359375,-2.194046974182129,-1.5340083837509155,12.5,0.0,2.8055906295776367,-1.083970069885254,-0.9587552398443222,22.75,0.0,2.8831958770751953,-1.2938976287841797,-0.9587552398443222,13.0,0.0,2.753734588623047,-0.9430646896362305,-0.9587552398443222,25.0,0.0,2.5963783264160156,0.04184246063232422,-0.7670041918754578,15.25,0.0,2.659320831298828,0.04398822784423828,-0.7670041918754578,24.75,0.0,2.6990175247192383,-0.028967857360839844,-0.7670041918754578,25.5,,,,,,,,,,,,,,,,,,,,,,,,,,,,,,,,,,,
0.0,-1.8038158416748047,0.9771518111228943,8.326105360723091e-10,0.0,0.0,0.0,0.0,0.0,0.0,0.0,1.6922950744628906,-1.3657808303833008,-0.19175104796886444,16.75,0.0,2.7108192443847656,-1.3375282287597656,-0.9587552398443222,22.5,0.0,2.848505973815918,-1.4183521270751953,-0.9587552398443222,18.25,0.0,3.036618232727051,-1.4870166778564453,-0.3835020959377289,14.25,0.0,2.651810646057129,-1.1758804321289062,-0.3835020959377289,25.75,0.0,2.653956413269043,-0.6000995635986328,-0.7670041918754578,28.75,0.0,2.6067495346069336,-0.2567768096923828,-0.7670041918754578,29.75,0.0,2.555966377258301,-0.17273426055908203,-0.7670041918754578,23.5,,,,,,,,,,,,,,,,,,,,,,,,,,,,,,
0.0,-1.8038158416748047,0.9771518111228943,8.326105360723091e-10,0.0,0.0,0.0,0.0,0.0,0.0,0.0,2.895355224609375,-1.7412900924682617,-0.19175104796886444,13.0,0.0,2.6407241821289062,-1.2177228927612305,-0.3835020959377289,24.75,0.0,2.7190446853637695,-1.293182373046875,-1.5340083837509155,21.25,0.0,2.8645992279052734,-1.3822317123413086,-0.19175104796886444,16.5,0.0,2.1153688430786133,-0.9151697158813477,-0.19175104796886444,17.75,0.0,2.6535987854003906,-0.823974609375,-0.3835020959377289,27.0,0.0,2.5713443756103516,-0.3343820571899414,-1.5340083837509155,26.25,0.0,2.479434013366699,-0.2167224884033203,-1.5340083837509155,24.0,,,,,,,,,,,,,,,,,,,,,,,,,,,,,,
0.0,-1.8038158416748047,0.9771518111228943,8.326105360723091e-10,0.0,0.0,0.0,0.0,0.0,0.0,0.0,2.6088953018188477,-1.1959075927734375,0.5752531439065933,21.5,0.0,2.694368362426758,-1.3407468795776367,0.5752531439065933,18.0,0.0,2.895355224609375,-1.3550519943237305,0.5752531439065933,13.75,0.0,2.0606517791748047,-0.9073019027709961,0.19175104796886444,26.0,0.0,2.5484561920166016,-1.0918378829956055,-1.342257335782051,25.0,0.0,2.2548437118530273,-0.6905794143676758,-1.9175104796886444,26.0,0.0,2.4347305297851562,-0.8440017700195312,-1.342257335782051,23.75,0.0,2.063870429992676,-0.9523630142211914,0.0,21.5,0.0,2.9979944229125977,-1.3042688369750977,0.0,20.75,,,,,,,,,,,,,,,,,,,,,,,,,
0.0,-1.8038158416748047,0.9771518111228943,8.326105360723091e-10,0.0,0.0,0.0,0.0,0.0,0.0,0.0,2.719402313232422,-1.5370845794677734,-0.19175104796886444,16.5,0.0,2.2001266479492188,-1.0453462600708008,-0.3835020959377289,17.25,0.0,2.463698387145996,-1.2449026107788086,-0.19175104796886444,12.5,0.0,2.603888511657715,-1.3893842697143555,-0.19175104796886444,15.0,0.0,2.8710365295410156,-1.530289649963379,-0.19175104796886444,17.5,0.0,2.972245216369629,-1.5624761581420898,-0.19175104796886444,13.5,0.0,2.1071434020996094,-0.8082389831542969,-0.3835020959377289,27.75,0.0,2.070307731628418,-0.7463693618774414,-0.19175104796886444,30.25,0.0,2.0334720611572266,-0.5979537963867188,-1.5340083837509155,13.75,0.0,3.106355667114258,-1.4069080352783203,0.0,19.25,0.0,2.0824670791625977,-0.7799863815307617,0.0,24.75,0.0,2.986907958984375,-1.3310909271240234,0.0,20.25,,,,,,,,,,
0.0,-1.8038158416748047,0.9771518111228943,8.326105360723091e-10,0.0,0.0,0.0,0.0,0.0,0.0,0.0,2.2008419036865234,-1.5285015106201172,0.19175104796886444,16.25,0.0,1.8886327743530273,-1.1436939239501953,-0.19175104796886444,21.75,0.0,2.087116241455078,-1.2316703796386719,0.5752531439065933,22.75,0.0,2.155423164367676,-1.3704299926757812,0.19175104796886444,20.75,0.0,2.417922019958496,-1.542806625366211,-1.1505062878131866,15.75,0.0,2.6525259017944336,-1.5510320663452148,-1.1505062878131866,14.25,0.0,2.8367042541503906,-1.6744136810302734,0.5752531439065933,13.75,0.0,2.962946891784668,-1.774907112121582,0.19175104796886444,14.5,0.0,2.9407739639282227,-1.3861656188964844,0.0,20.5,0.0,2.8717517852783203,-1.106858253479004,0.0,20.25,,,,,,,,,,,,,,,,,,,,
0.0,-1.8038158416748047,0.9771518111228943,8.326105360723091e-10,0.0,0.0,0.0,0.0,0.0,0.0,0.0,2.008795738220215,-1.2867450714111328,-1.9175104796886444,23.5,0.0,2.067446708679199,-1.3958215713500977,-1.9175104796886444,19.25,0.0,2.136111259460449,-1.5113353729248047,-1.9175104796886444,14.5,0.0,1.7570257186889648,-1.0142326354980469,0.19175104796886444,16.5,0.0,1.878976821899414,-1.1494159698486328,0.19175104796886444,22.5,,,,,,,,,,,,,,,,,,,,,,,,,,,,,,,,,,,,,,,,,,,,,
0.0,-1.8038158416748047,0.9771518111228943,8.326105360723091e-10,0.0,0.0,0.0,0.0,0.0,0.0,0.0,1.7184019088745117,-1.2123584747314453,0.3835020959377289,12.5,0.0,1.7809867858886719,-1.2767314910888672,-0.3835020959377289,22.25,0.0,1.9150972366333008,-1.2835264205932617,-0.3835020959377289,20.25,0.0,1.9834041595458984,-1.4115571975708008,-1.342257335782051,15.0,0.0,2.7887821197509766,-1.2552738189697266,0.0,19.5,,,,,,,,,,,,,,,,,,,,,,,,,,,,,,,,,,,,,,,,,,,,,
0.0,-1.8038158416748047,0.9771518111228943,8.326105360723091e-10,0.0,0.0,0.0,0.0,0.0,0.0,0.0,1.6704797744750977,-1.2288093566894531,0.19175104796886444,15.5,0.0,1.7809867858886719,-1.2770891189575195,0.3835020959377289,21.0,0.0,1.9658803939819336,-1.2273788452148438,0.19175104796886444,21.25,0.0,2.048492431640625,-1.3039112091064453,0.19175104796886444,14.0,0.0,2.7583837509155273,-1.358628273010254,0.0,19.0,,,,,,,,,,,,,,,,,,,,,,,,,,,,,,,,,,,,,,,,,,,,,
0.0,-1.8038158416748047,0.9771518111228943,8.326105360723091e-10,0.0,0.0,0.0,0.0,0.0,0.0,0.0,1.7101764678955078,-1.4258623123168945,0.19175104796886444,23.25,0.0,1.8357038497924805,-1.407623291015625,0.19175104796886444,22.5,0.0,1.9987821578979492,-1.3790130615234375,0.19175104796886444,16.75,0.0,2.904653549194336,-1.7369985580444336,0.19175104796886444,12.5,0.0,2.94649600982666,-1.4805793762207031,0.19175104796886444,14.75,0.0,1.9823312759399414,-0.9076595306396484,0.0,27.5,0.0,2.5985240936279297,-1.284956932067871,0.0,18.0,,,,,,,,,,,,,,,,,,,,,,,,,,,,,,,,,,,
0.0,-1.8038158416748047,0.9771518111228943,8.326105360723091e-10,0.0,0.0,0.0,0.0,0.0,0.0,0.0,1.679062843322754,-1.1562108993530273,-0.19175104796886444,16.25,0.0,1.798868179321289,-1.1358261108398438,-0.19175104796886444,22.0,0.0,2.0581483840942383,-1.0242462158203125,-0.19175104796886444,18.0,0.0,2.21407413482666,-1.088261604309082,0.3835020959377289,13.25,0.0,2.463698387145996,-1.1955499649047852,0.0,18.0,,,,,,,,,,,,,,,,,,,,,,,,,,,,,,,,,,,,,,,,,,,,,
0.0,-1.8038158416748047,0.9771518111228943,8.326105360723091e-10,0.0,0.0,0.0,0.0,0.0,0.0,0.0,3.1785964965820312,-1.3715028762817383,-0.7670041918754578,17.25,0.0,3.371715545654297,-1.296401023864746,-0.9587552398443222,14.75,0.0,3.1789541244506836,-0.5861520767211914,-0.7670041918754578,18.75,0.0,2.912163734436035,0.08690357208251953,-0.7670041918754578,19.25,0.0,2.956867218017578,0.08654594421386719,-0.7670041918754578,24.0,0.0,3.0344724655151367,-0.020384788513183594,-0.9587552398443222,22.0,,,,,,,,,,,,,,,,,,,,,,,,,,,,,,,,,,,,,,,,
0.0,-1.8038158416748047,0.9771518111228943,8.326105360723091e-10,0.0,0.0,0.0,0.0,0.0,0.0,0.0,3.2165050506591797,-1.0911226272583008,-1.9175104796886444,14.5,0.0,3.1414031982421875,-0.8879899978637695,-1.342257335782051,18.0,0.0,3.020167350769043,-0.5893707275390625,-0.9587552398443222,18.75,0.0,2.8438568115234375,0.07224082946777344,-0.9587552398443222,20.25,0.0,2.8960704803466797,-0.03647804260253906,-0.9587552398443222,21.5,,,,,,,,,,,,,,,,,,,,,,,,,,,,,,,,,,,,,,,,,,,,,
0.0,-1.8038158416748047,0.9771518111228943,8.326105360723091e-10,0.0,0.0,0.0,0.0,0.0,0.0,0.0,2.851724624633789,-1.1833906173706055,-0.7670041918754578,24.0,0.0,2.936124801635742,-1.2123584747314453,-1.1505062878131866,18.5,0.0,2.832770347595215,-0.48351287841796875,-0.7670041918754578,22.0,0.0,2.719759941101074,-0.12731552124023438,-0.9587552398443222,22.5,0.0,2.7333498001098633,-0.16701221466064453,-0.9587552398443222,26.5,0.0,3.665328025817871,-1.0800361633300781,0.0,17.0,,,,,,,,,,,,,,,,,,,,,,,,,,,,,,,,,,,,,,,,
0.0,-1.8038158416748047,0.9771518111228943,8.326105360723091e-10,0.0,0.0,0.0,0.0,0.0,0.0,0.0,3.205418586730957,-1.557469367980957,-1.1505062878131866,12.25,0.0,2.898573875427246,-1.1301040649414062,-1.5340083837509155,23.25,0.0,2.9604434967041016,-1.2456178665161133,-1.72575943171978,19.75,0.0,3.1092166900634766,-1.3021230697631836,-1.1505062878131866,15.25,0.0,2.8023719787597656,-0.9359121322631836,-1.1505062878131866,22.0,0.0,2.709031105041504,-0.513911247253418,-1.1505062878131866,22.5,0.0,2.5663375854492188,-0.11301040649414062,-1.342257335782051,13.25,0.0,2.645730972290039,-0.1748800277709961,-1.1505062878131866,21.0,,,,,,,,,,,,,,,,,,,,,,,,,,,,,,
0.0,-1.8038158416748047,0.9771518111228943,8.326105360723091e-10,0.0,0.0,0.0,0.0,0.0,0.0,0.0,1.942276954650879,-1.0946989059448242,-0.19175104796886444,16.0,0.0,2.6357173919677734,-1.454472541809082,-0.9587552398443222,18.75,0.0,3.0001401901245117,-1.6268491744995117,-0.19175104796886444,13.75,0.0,2.5309324264526367,-1.1930465698242188,-1.1505062878131866,26.0,0.0,2.5413036346435547,-1.359701156616211,-1.1505062878131866,23.0,0.0,2.837061882019043,-1.5152692794799805,-0.19175104796886444,15.5,0.0,2.533435821533203,-0.6852149963378906,-1.1505062878131866,23.5,0.0,2.441525459289551,-0.48172473907470703,-1.1505062878131866,20.5,0.0,1.651167869567871,-1.4204978942871094,0.0,23.25,0.0,1.7641782760620117,-1.4394521713256836,0.0,19.0,,,,,,,,,,,,,,,,,,,,
0.0,-1.8038158416748047,0.9771518111228943,8.326105360723091e-10,0.0,0.0,0.0,0.0,0.0,0.0,0.0,2.565622329711914,-1.4984607696533203,-2.4927636235952377,12.75,0.0,2.353191375732422,-1.0936260223388672,-1.9175104796886444,25.25,0.0,2.4515390396118164,-1.1991262435913086,-2.4927636235952377,25.75,0.0,2.4837255477905273,-1.3346672058105469,-2.4927636235952377,19.0,0.0,2.1375417709350586,-0.8550882339477539,-2.3010125756263733,21.5,0.0,2.2788047790527344,-0.8035898208618164,-1.9175104796886444,24.0,,,,,,,,,,,,,,,,,,,,,,,,,,,,,,,,,,,,,,,,
0.0,-1.8038158416748047,0.9771518111228943,8.326105360723091e-10,0.0,0.0,0.0,0.0,0.0,0.0,0.0,1.8478631973266602,-1.032114028930664,0.19175104796886444,13.0,0.0,1.9412040710449219,-1.0589361190795898,0.19175104796886444,24.75,0.0,2.047419548034668,-1.1862516403198242,-0.5752531439065933,24.5,0.0,2.1436214447021484,-1.3511180877685547,-0.5752531439065933,23.5,0.0,2.2644996643066406,-1.4036893844604492,-1.1505062878131866,18.0,,,,,,,,,,,,,,,,,,,,,,,,,,,,,,,,,,,,,,,,,,,,,
0.0,-1.8038158416748047,0.9771518111228943,8.326105360723091e-10,0.0,0.0,0.0,0.0,0.0,0.0,0.0,1.9876956939697266,-1.2030601501464844,-0.9587552398443222,21.5,0.0,2.13468074798584,-1.2878179550170898,-0.5752531439065933,19.25,0.0,1.868605613708496,-0.973820686340332,-0.9587552398443222,14.5,0.0,1.9208192825317383,-1.0167360305786133,-0.9587552398443222,24.0,,,,,,,,,,,,,,,,,,,,,,,,,,,,,,,,,,,,,,,,,,,,,,,,,,
0.0,-1.8038158416748047,0.9771518111228943,8.326105360723091e-10,0.0,0.0,0.0,0.0,0.0,0.0,0.0,3.3921003341674805,-1.5960931777954102,-0.7670041918754578,13.75,0.0,3.373861312866211,-1.2456178665161133,-0.7670041918754578,17.5,0.0,3.312349319458008,-0.5947351455688477,-0.7670041918754578,21.0,0.0,3.097057342529297,-0.36728382110595703,-0.7670041918754578,20.0,0.0,3.1496286392211914,-0.4220008850097656,-1.342257335782051,27.0,0.0,3.1921863555908203,-0.4749298095703125,-0.7670041918754578,26.5,0.0,3.760099411010742,-1.4455318450927734,0.0,15.75,0.0,3.664255142211914,-1.0657310485839844,0.0,17.5,0.0,3.388524055480957,0.030040740966796875,0.0,24.25,,,,,,,,,,,,,,,,,,,,,,,,,
0.0,-1.8038158416748047,0.9771518111228943,8.326105360723091e-10,0.0,0.0,0.0,0.0,0.0,0.0,0.0,3.332376480102539,-1.1991262435913086,-0.9587552398443222,22.0,0.0,3.402113914489746,-1.175522804260254,-1.1505062878131866,19.0,0.0,3.177165985107422,-0.5797147750854492,-0.9587552398443222,16.0,0.0,3.0083656311035156,-0.3179311752319336,-0.9587552398443222,25.5,0.0,3.01516056060791,-0.11229515075683594,-0.9587552398443222,24.75,0.0,2.9364824295043945,0.14197826385498047,-0.9587552398443222,16.5,,,,,,,,,,,,,,,,,,,,,,,,,,,,,,,,,,,,,,,,
0.0,-1.8038158416748047,0.9771518111228943,8.326105360723091e-10,0.0,0.0,0.0,0.0,0.0,0.0,0.0,3.2204389572143555,-1.2177228927612305,-1.342257335782051,17.0,0.0,3.353118896484375,-1.2892484664916992,-1.342257335782051,13.75,0.0,2.9633045196533203,-0.7717609405517578,-1.1505062878131866,18.75,0.0,3.1675100326538086,-0.8554458618164062,-1.342257335782051,19.5,0.0,2.876758575439453,-0.2886056900024414,-0.9587552398443222,23.5,0.0,2.8645992279052734,-0.1595020294189453,-1.1505062878131866,21.25,,,,,,,,,,,,,,,,,,,,,,,,,,,,,,,,,,,,,,,,
0.0,-1.8038158416748047,0.9771518111228943,8.326105360723091e-10,0.0,0.0,0.0,0.0,0.0,0.0,0.0,3.087759017944336,-1.4455318450927734,-0.9587552398443222,14.25,0.0,3.04412841796875,-1.1794567108154297,-1.5340083837509155,18.5,0.0,2.9633045196533203,-0.8307695388793945,-1.5340083837509155,18.75,0.0,2.8710365295410156,-0.3751516342163086,-0.9587552398443222,21.0,0.0,2.8052330017089844,-0.16379356384277344,-1.1505062878131866,20.75,0.0,2.718687057495117,0.043272972106933594,-1.1505062878131866,14.5,,,,,,,,,,,,,,,,,,,,,,,,,,,,,,,,,,,,,,,,
0.0,-1.8038158416748047,0.9771518111228943,8.326105360723091e-10,0.0,0.0,0.0,0.0,0.0,0.0,0.0,2.7791261672973633,-1.2699365615844727,-0.7670041918754578,22.75,0.0,2.882838249206543,-1.3664960861206055,-0.7670041918754578,17.0,0.0,2.7469396591186523,-0.8919239044189453,-0.7670041918754578,24.25,0.0,2.6950836181640625,-0.5432367324829102,-1.72575943171978,25.25,0.0,2.6464462280273438,-0.1748800277709961,-1.1505062878131866,23.5,0.0,2.5620460510253906,0.05829334259033203,-1.1505062878131866,16.75,,,,,,,,,,,,,,,,,,,,,,,,,,,,,,,,,,,,,,,,
0.0,-1.8038158416748047,0.9771518111228943,8.326105360723091e-10,0.0,0.0,0.0,0.0,0.0,0.0,0.0,1.6840696334838867,-1.3761520385742188,-0.19175104796886444,20.5,0.0,2.866387367248535,-1.3654232025146484,0.19175104796886444,16.25,0.0,3.080606460571289,-1.3990402221679688,0.19175104796886444,12.75,0.0,2.670764923095703,-1.0972023010253906,-2.4927636235952377,25.0,0.0,2.741575241088867,-1.1998414993286133,-2.4927636235952377,21.75,0.0,2.6453733444213867,-0.9731054306030273,-0.9587552398443222,28.25,0.0,2.6074647903442383,-0.5199909210205078,-1.1505062878131866,23.25,0.0,2.46584415435791,-0.16021728515625,-1.1505062878131866,20.75,0.0,1.6897916793823242,-1.392960548400879,0.0,24.5,0.0,1.9701719284057617,-1.2499094009399414,0.0,20.75,,,,,,,,,,,,,,,,,,,,
0.0,-1.8038158416748047,0.9771518111228943,8.326105360723091e-10,0.0,0.0,0.0,0.0,0.0,0.0,0.0,2.441883087158203,-1.4444589614868164,-0.19175104796886444,18.25,0.0,2.572774887084961,-1.5642642974853516,-0.19175104796886444,13.75,0.0,2.351045608520508,-1.1082887649536133,-0.19175104796886444,26.25,0.0,2.409696578979492,-1.226663589477539,-0.19175104796886444,24.75,0.0,2.1250247955322266,-0.802159309387207,-1.72575943171978,21.75,0.0,2.2677183151245117,-0.9001493453979492,-1.72575943171978,23.0,0.0,1.7255544662475586,-1.362919807434082,0.0,24.5,0.0,2.07674503326416,-1.1501312255859375,0.0,22.0,,,,,,,,,,,,,,,,,,,,,,,,,,,,,,
0.0,-1.8038158416748047,0.9771518111228943,8.326105360723091e-10,0.0,0.0,0.0,0.0,0.0,0.0,0.0,2.3370981216430664,-1.522064208984375,0.19175104796886444,12.25,0.0,2.1053552627563477,-1.147627830505371,0.19175104796886444,26.5,0.0,2.1768808364868164,-1.2731552124023438,0.19175104796886444,26.75,0.0,2.2552013397216797,-1.3532638549804688,0.19175104796886444,18.75,0.0,1.930832862854004,-0.8858442306518555,-2.109261527657509,13.0,0.0,2.0377635955810547,-0.9069442749023438,-0.7670041918754578,25.25,0.0,1.8324851989746094,-1.2241601943969727,0.0,26.75,0.0,2.019166946411133,-1.1926889419555664,0.0,24.0,0.0,2.4983882904052734,-0.7807016372680664,0.0,23.25,,,,,,,,,,,,,,,,,,,,,,,,,
0.0,-1.8038158416748047,0.9771518111228943,8.326105360723091e-10,0.0,0.0,0.0,0.0,0.0,0.0,0.0,1.901865005493164,-1.0428428649902344,-0.9587552398443222,24.75,0.0,2.020597457885742,-1.1830329895019531,-0.9587552398443222,22.0,0.0,2.201557159423828,-1.222372055053711,-0.7670041918754578,21.25,0.0,2.2977590560913086,-1.2617111206054688,-0.7670041918754578,13.5,0.0,1.843571662902832,-0.9888410568237305,-0.9587552398443222,14.75,0.0,3.234744071960449,-1.129746437072754,-2.4927636235952377,12.0,0.0,1.8428564071655273,-1.1966228485107422,0.0,27.75,0.0,1.970529556274414,-1.2513399124145508,0.0,24.75,0.0,3.3245086669921875,-1.260995864868164,0.0,14.25,0.0,2.489805221557617,-0.790715217590332,0.0,23.0,,,,,,,,,,,,,,,,,,,,
0.0,-1.8038158416748047,0.9771518111228943,8.326105360723091e-10,0.0,0.0,0.0,0.0,0.0,0.0,0.0,1.7445087432861328,-1.2127161026000977,-0.19175104796886444,12.75,0.0,1.8253326416015625,-1.2449026107788086,-0.5752531439065933,23.5,0.0,2.1200180053710938,-1.132965087890625,-0.3835020959377289,23.0,0.0,2.2623538970947266,-1.1426210403442383,-0.9587552398443222,24.5,0.0,2.368927001953125,-1.1290311813354492,-0.9587552398443222,17.25,0.0,3.075242042541504,-0.4667043685913086,-2.3010125756263733,14.25,0.0,2.0248889923095703,-1.1959075927734375,0.0,24.75,0.0,2.4261474609375,-0.9588003158569336,0.0,24.25,0.0,2.588510513305664,-1.028895378112793,0.0,23.25,0.0,2.685070037841797,-1.1283159255981445,0.0,21.25,,,,,,,,,,,,,,,,,,,,
0.0,-1.8038158416748047,0.9771518111228943,8.326105360723091e-10,0.0,0.0,0.0,0.0,0.0,0.0,0.0,1.6543865203857422,-1.2438297271728516,-0.5752531439065933,14.5,0.0,1.8153190612792969,-1.222372055053711,-0.7670041918754578,21.0,0.0,1.9855499267578125,-1.2359619140625,-0.5752531439065933,20.75,0.0,2.1625757217407227,-1.2438297271728516,-0.3835020959377289,16.5,0.0,2.5151968002319336,-1.0596513748168945,-1.1505062878131866,12.25,0.0,2.8148889541625977,-0.7041692733764648,-1.1505062878131866,13.25,0.0,2.5634765625,-1.0689496994018555,0.0,22.0,,,,,,,,,,,,,,,,,,,,,,,,,,,,,,,,,,,
0.0,-1.7133283615112305,1.1902523040771484,6.837118649016816e-10,0.1171751543879509,0.31775805354118347,-1.6681919734473638e-10,0.07448159158229828,0.2505323886871338,-9.519701693605498e-11,0.0,1.5864372253417969,-1.4040470123291016,0.19175104796886444,12.0,0.0,1.8371343612670898,-1.326441764831543,0.19175104796886444,21.5,0.0,2.1404027938842773,-1.2770891189575195,-0.19175104796886444,24.75,0.0,2.259492874145508,-1.359701156616211,-0.19175104796886444,16.0,0.0,2.133965492248535,-1.146554946899414,-0.3835020959377289,25.25,0.0,2.856731414794922,-0.4405975341796875,-0.5752531439065933,16.5,0.0,2.5441646575927734,-1.1125802993774414,0.0,22.0,,,,,,,,,,,,,,,,,,,,,,,,,,,,,,,,,,,
0.0,-0.6008831262588501,3.198444366455078,9.267048933780941e-12,-0.4881477952003479,-0.5836383104324341,-1.3215214512973805e-11,-0.403350830078125,-0.4175533056259155,-2.7686897913214992e-11,0.0,3.185391426086426,-0.6083250045776367,-0.3835020959377289,17.5,0.0,3.2733678817749023,-0.7352828979492188,-0.3835020959377289,23.0,0.0,3.3617019653320312,-0.6862878799438477,-0.5752531439065933,23.0,0.0,3.4668445587158203,-0.6651878356933594,-0.5752531439065933,17.25,0.0,2.8667449951171875,0.6405115127563477,-0.5752531439065933,13.5,0.0,3.063082695007324,0.15842914581298828,0.0,18.75,,,,,,,,,,,,,,,,,,,,,,,,,,,,,,,,,,,,,,,,
0.0,-0.5991470813751221,3.145517587661743,5.784925490026627e-12,-0.4404028356075287,-0.6142372488975525,-1.8360925627125546e-11,-0.32984650135040283,-0.4110386371612549,-2.9091061157227038e-11,0.0,3.2733678817749023,-1.0142326354980469,-0.5752531439065933,21.25,0.0,3.348112106323242,-1.1612176895141602,-0.5752531439065933,15.5,0.0,3.217935562133789,-0.8658170700073242,-0.5752531439065933,22.5,0.0,3.1142234802246094,-0.38230419158935547,-0.3835020959377289,19.0,0.0,2.920389175415039,0.0776052474975586,-0.5752531439065933,20.0,0.0,2.839207649230957,0.13339519500732422,-0.5752531439065933,18.75,0.0,2.926468849182129,0.07152557373046875,0.0,13.0,0.0,3.020167350769043,0.17309188842773438,0.0,20.25,,,,,,,,,,,,,,,,,,,,,,,,,,,,,,
0.0,-0.6086844801902771,3.07045316696167,2.95116730532341e-12,-0.40159866213798523,-0.704799473285675,-2.221537016844355e-11,-0.2596306800842285,-0.49430811405181885,-2.9642979043620343e-11,0.0,3.1964778900146484,-1.6508102416992188,-0.9587552398443222,15.0,0.0,3.2515525817871094,-1.021742820739746,-0.9587552398443222,18.0,0.0,3.136754035949707,-0.6927251815795898,-0.7670041918754578,22.5,0.0,3.029465675354004,-0.3561973571777344,-0.7670041918754578,26.0,0.0,2.947568893432617,-0.2281665802001953,-0.7670041918754578,26.75,0.0,2.886056900024414,-0.080108642578125,-0.7670041918754578,22.25,0.0,3.4890174865722656,-1.3153553009033203,0.0,17.25,,,,,,,,,,,,,,,,,,,,,,,,,,,,,,,,,,,
0.0,-0.6300126314163208,2.979727268218994,5.347003764234748e-13,-0.385067880153656,-0.8036606311798096,-2.5184800425681608e-11,-0.21555790305137634,-0.5677414536476135,-2.9635807696770655e-11,0.0,3.0537843704223633,-1.1461973190307617,-0.7670041918754578,21.75,0.0,2.962946891784668,-1.0017156600952148,-0.7670041918754578,21.25,0.0,3.2132863998413086,-1.0281801223754883,-0.7670041918754578,16.0,0.0,2.864956855773926,-0.6587505340576172,-1.1505062878131866,20.5,0.0,2.68399715423584,0.07653236389160156,-0.9587552398443222,19.0,0.0,2.7440786361694336,-0.03147125244140625,-0.7670041918754578,21.5,0.0,3.4546852111816406,-1.3854503631591797,0.0,16.0,,,,,,,,,,,,,,,,,,,,,,,,,,,,,,,,,,,
0.0,-0.7468388676643372,2.853978395462036,-1.378033104293408e-12,-0.5260975360870361,-0.963625431060791,-2.7136083310952408e-11,-0.30344733595848083,-0.7006188631057739,-2.900665298233296e-11,0.0,2.869248390197754,-1.2402534484863281,-0.7670041918754578,29.0,0.0,2.945423126220703,-1.2449026107788086,-0.7670041918754578,25.0,0.0,3.023386001586914,-1.342177391052246,-1.5340083837509155,17.75,0.0,2.750515937805176,-0.8997917175292969,-0.7670041918754578,26.0,0.0,2.6453733444213867,-0.6598234176635742,-0.9587552398443222,31.0,0.0,2.6464462280273438,-0.5843639373779297,-1.1505062878131866,27.5,0.0,2.5892257690429688,-0.41162967681884766,-1.1505062878131866,14.5,0.0,3.4618377685546875,-1.352548599243164,0.0,15.5,,,,,,,,,,,,,,,,,,,,,,,,,,,,,,
0.0,-0.887238085269928,2.7419545650482178,-2.8993580539898867e-12,-0.702684760093689,-1.0684559345245361,-2.8344843833183475e-11,-0.4251346290111542,-0.7408344149589539,-2.797090857542539e-11,0.0,1.7802715301513672,-1.3178586959838867,-0.19175104796886444,17.0,0.0,2.924680709838867,-2.0617246627807617,-1.1505062878131866,12.5,0.0,2.866387367248535,-1.8317699432373047,-0.19175104796886444,14.75,0.0,2.863168716430664,-1.4344453811645508,-2.684514671564102,17.0,0.0,2.8417110443115234,-1.0911226272583008,-1.1505062878131866,20.0,0.0,2.640366554260254,-0.8329153060913086,0.3835020959377289,24.5,0.0,2.744436264038086,-1.0017156600952148,-1.1505062878131866,22.5,0.0,2.5538206100463867,-0.5950927734375,0.3835020959377289,24.5,0.0,2.4486780166625977,-0.5271434783935547,-2.109261527657509,19.75,0.0,3.4679174423217773,-1.3489723205566406,0.0,13.5,,,,,,,,,,,,,,,,,,,,
0.0,-1.0057624578475952,2.6010589599609375,-4.271444743048081e-12,-0.8293243050575256,-1.1860653162002563,-2.9114436556065826e-11,-0.4989282190799713,-0.7765413522720337,-2.672096745259811e-11,0.0,1.9243955612182617,-1.1115074157714844,-1.5340083837509155,22.75,0.0,2.5970935821533203,-1.2187957763671875,-0.19175104796886444,22.0,0.0,2.695441246032715,-1.337885856628418,-0.19175104796886444,18.25,0.0,2.870321273803711,-1.3793706893920898,-0.19175104796886444,15.0,0.0,2.5434494018554688,-1.0979175567626953,0.19175104796886444,26.5,0.0,2.4840831756591797,-0.8465051651000977,-1.5340083837509155,25.0,0.0,2.336740493774414,-0.6691217422485352,-1.5340083837509155,22.5,0.0,1.8932819366455078,-1.3436079025268555,0.0,17.0,,,,,,,,,,,,,,,,,,,,,,,,,,,,,,
0.0,-1.1573959589004517,2.4757931232452393,-5.246896233462861e-12,-1.0246134996414185,-1.2359123229980469,-2.918966804377199e-11,-0.649318516254425,-0.7094703912734985,-2.5126192793045732e-11,0.0,2.6339292526245117,-1.4537572860717773,-0.19175104796886444,16.75,0.0,2.7333498001098633,-1.719832420349121,-0.19175104796886444,12.0,0.0,3.0040740966796875,-1.6486644744873047,-0.19175104796886444,12.25,0.0,2.121090888977051,-1.0002851486206055,-0.7670041918754578,26.5,0.0,2.24912166595459,-1.1143684387207031,0.9587552398443222,22.25,0.0,2.489447593688965,-1.2012720108032227,-0.19175104796886444,19.75,0.0,2.5960206985473633,-1.2871026992797852,-0.19175104796886444,20.0,0.0,2.0914077758789062,-0.8625984191894531,-0.7670041918754578,25.5,0.0,2.002716064453125,-1.1512041091918945,0.0,18.25,0.0,3.3516883850097656,-1.1816024780273438,0.0,14.0,,,,,,,,,,,,,,,,,,,,
0.0,-1.281691551208496,2.335319995880127,-6.136148880675485e-12,-1.1285456418991089,-1.3241286277770996,-2.885031102906055e-11,-0.6876739859580994,-0.7204650044441223,-2.3315365263454346e-11,0.0,2.3345947265625,-1.6644001007080078,-0.19175104796886444,17.0,0.0,2.170443534851074,-1.2634992599487305,-1.342257335782051,23.0,0.0,2.2788047790527344,-1.4537572860717773,-0.19175104796886444,18.75,0.0,2.6117563247680664,-1.5753507614135742,-0.3835020959377289,14.75,0.0,2.0127296447753906,-0.9859800338745117,-0.3835020959377289,26.25,0.0,2.089262008666992,-1.0510683059692383,-0.3835020959377289,26.0,0.0,2.8334856033325195,-1.5234947204589844,-0.7670041918754578,12.75,0.0,2.0821094512939453,-0.9630918502807617,0.0,23.5,,,,,,,,,,,,,,,,,,,,,,,,,,,,,,
0.0,-1.363710880279541,2.196244478225708,-7.235459627275009e-12,-1.129241943359375,-1.4011280536651611,-2.8599653895122756e-11,-0.622418224811554,-0.72980135679245,-2.164687526451381e-11,0.0,2.2069215774536133,-1.5052556991577148,-1.1505062878131866,18.5,0.0,2.312779426574707,-1.6225576400756836,-1.1505062878131866,12.75,0.0,2.1371841430664062,-1.3178586959838867,-1.1505062878131866,21.25,0.0,2.0477771759033203,-1.0013580322265625,-0.19175104796886444,21.75,0.0,2.08890438079834,-1.1129379272460938,-0.19175104796886444,23.0,0.0,2.089262008666992,-0.9276866912841797,0.0,24.5,0.0,2.222299575805664,-0.9351968765258789,0.0,26.25,,,,,,,,,,,,,,,,,,,,,,,,,,,,,,,,,,,
0.0,-1.4051283597946167,2.0881550312042236,-8.723267767851706e-12,-1.0560004711151123,-1.3989884853363037,-2.8771433152607884e-11,-0.5047797560691833,-0.6515082716941833,-2.0360307190214755e-11,0.0,2.165079116821289,-1.1014938354492188,-0.5752531439065933,17.5,0.0,2.2412538528442383,-1.1469125747680664,-0.5752531439065933,17.25,0.0,2.084970474243164,-0.8536577224731445,-0.3835020959377289,12.75,0.0,2.099275588989258,-0.9044408798217773,0.0,24.75,0.0,2.22623348236084,-0.9351968765258789,0.0,26.5,,,,,,,,,,,,,,,,,,,,,,,,,,,,,,,,,,,,,,,,,,,,,
0.0,-1.455397605895996,1.9862734079360962,-9.323808218553165e-12,-1.0308139324188232,-1.356014609336853,-2.765020504225113e-11,-0.4667623043060303,-0.5175206065177917,-1.835829752105944e-11,0.0,1.7319917678833008,-1.1816024780273438,-0.19175104796886444,13.25,0.0,1.8771886825561523,-1.1336803436279297,0.19175104796886444,22.75,0.0,2.029895782470703,-1.1039972305297852,0.3835020959377289,21.0,0.0,2.1822452545166016,-1.152634620666504,0.3835020959377289,16.25,0.0,2.9894113540649414,-1.4662742614746094,0.0,12.5,,,,,,,,,,,,,,,,,,,,,,,,,,,,,,,,,,,,,,,,,,,,,
0.0,-1.5111278295516968,1.94541335105896,-9.160324408730158e-12,-1.0116376876831055,-1.2117356061935425,-2.547181909839935e-11,-0.43435582518577576,-0.3086482286453247,-1.5811664477727305e-11,0.0,2.0449161529541016,-1.4723539352416992,0.19175104796886444,17.25,0.0,2.162933349609375,-1.5785694122314453,0.19175104796886444,13.75,0.0,1.8864870071411133,-1.1508464813232422,-0.3835020959377289,21.5,0.0,2.0220279693603516,-1.1436939239501953,0.19175104796886444,18.75,0.0,2.9082298278808594,-1.5488862991333008,0.19175104796886444,13.25,0.0,2.744436264038086,-1.3142824172973633,0.0,19.75,0.0,2.8592348098754883,-1.4265775680541992,0.0,16.0,,,,,,,,,,,,,,,,,,,,,,,,,,,,,,,,,,,
0.0,-0.26316002011299133,3.1092355251312256,-8.18152186624066e-13,-0.2260655164718628,-0.8995816111564636,-2.4260109979939992e-12,-0.5327898859977722,-0.83845055103302,-1.518963882625457e-12,0.0,3.0895471572875977,-1.1250972747802734,-0.7670041918754578,17.25,0.0,3.334164619445801,-0.9573698043823242,-0.7670041918754578,19.25,0.0,3.40425968170166,-0.9838342666625977,-0.7670041918754578,12.75,0.0,2.987980842590332,-0.1838207244873047,-1.342257335782051,23.5,0.0,2.9186010360717773,-0.08797645568847656,-0.7670041918754578,16.75,0.0,3.019094467163086,-0.07474422454833984,-1.342257335782051,23.25,,,,,,,,,,,,,,,,,,,,,,,,,,,,,,,,,,,,,,,,
0.0,-0.3989960551261902,3.0273478031158447,-7.612970583797951e-13,-0.4734097719192505,-0.9597924947738647,-2.2046754612897734e-12,-0.6998600959777832,-0.8118681311607361,-1.287958346744833e-12,0.0,3.2039880752563477,-1.237034797668457,-0.9587552398443222,17.5,0.0,3.123164176940918,-1.1372566223144531,-0.9587552398443222,19.0,0.0,3.3502578735351562,-1.1973381042480469,-0.19175104796886444,12.75,0.0,3.0062198638916016,-0.6068944931030273,-0.7670041918754578,17.0,0.0,2.8159618377685547,-0.10406970977783203,-0.9587552398443222,21.75,0.0,2.8581619262695312,-0.22208690643310547,-0.9587552398443222,21.25,0.0,2.7598142623901367,-0.013589859008789062,-0.9587552398443222,14.25,0.0,3.313779830932617,1.4015436172485352,-0.5752531439065933,14.25,,,,,,,,,,,,,,,,,,,,,,,,,,,,,,
0.0,-0.4065680205821991,2.9212558269500732,-7.700824027935538e-13,-0.4667181372642517,-1.0469321012496948,-2.0612717262225022e-12,-0.6337308883666992,-0.8144972324371338,-1.1173220551899399e-12,0.0,2.9633045196533203,-0.9741783142089844,-0.9587552398443222,21.25,0.0,3.0988454818725586,-0.7781982421875,-0.9587552398443222,16.5,0.0,2.8488636016845703,-0.11301040649414062,-0.9587552398443222,19.25,0.0,2.6847124099731445,0.03647804260253906,-0.9587552398443222,22.25,0.0,2.7097463607788086,0.09369850158691406,-0.9587552398443222,24.25,,,,,,,,,,,,,,,,,,,,,,,,,,,,,,,,,,,,,,,,,,,,,
0.0,-0.4803798794746399,2.815232038497925,-6.894713749580617e-13,-0.5738028287887573,-1.122950792312622,-1.801229738279675e-12,-0.6721479892730713,-0.807784378528595,-8.822338476086045e-13,0.0,2.8177499771118164,-1.1229515075683594,-1.5340083837509155,16.25,0.0,3.0355453491210938,-1.2570619583129883,-1.1505062878131866,14.0,0.0,3.1267404556274414,-1.4104843139648438,-1.1505062878131866,13.25,0.0,2.759099006652832,-0.3848075866699219,-0.7670041918754578,23.5,0.0,2.671480178833008,-0.15807151794433594,-0.9587552398443222,26.25,0.0,2.7011632919311523,-0.25069713592529297,-0.7670041918754578,28.0,0.0,2.5942325592041016,-0.047206878662109375,-0.9587552398443222,16.5,,,,,,,,,,,,,,,,,,,,,,,,,,,,,,,,,,,
0.0,-0.7361181974411011,2.708831310272217,-6.288105886681494e-13,-1.011216163635254,-1.1586549282073975,-1.5739422569091555e-12,-1.0074670314788818,-0.7292355298995972,-6.822317233715069e-13,0.0,1.782059669494629,-1.3808012008666992,-0.19175104796886444,20.75,0.0,2.933979034423828,-1.6726255416870117,-0.3835020959377289,13.75,0.0,2.7576684951782227,-1.255631446838379,-1.9175104796886444,19.75,0.0,2.823472023010254,-1.500248908996582,-0.3835020959377289,17.0,0.0,2.660393714904785,-1.101851463317871,-0.19175104796886444,23.5,0.0,2.383589744567871,-0.7166862487792969,-0.7670041918754578,23.0,0.0,2.585291862487793,-0.91552734375,-0.19175104796886444,27.5,0.0,2.5262832641601562,-0.6859302520751953,-0.19175104796886444,27.0,,,,,,,,,,,,,,,,,,,,,,,,,,,,,,
0.0,-0.7916192412376404,2.538843870162964,-5.782716970201274e-13,-0.9817343950271606,-1.38063645362854,-1.3542680431938292e-12,-0.8615096807479858,-0.9410855770111084,-4.925226892993351e-13,0.0,2.488374710083008,-1.1637210845947266,-2.109261527657509,22.5,0.0,2.5963783264160156,-1.2853145599365234,-1.9175104796886444,21.75,0.0,2.647876739501953,-1.3800859451293945,-1.9175104796886444,17.5,0.0,2.261638641357422,-0.641942024230957,-1.5340083837509155,24.5,0.0,2.3828744888305664,-0.44989585876464844,-1.5340083837509155,30.25,0.0,2.439737319946289,-0.4380941390991211,-1.5340083837509155,28.25,,,,,,,,,,,,,,,,,,,,,,,,,,,,,,,,,,,,,,,,
0.0,-0.9235624074935913,2.380547523498535,-4.842388968105682e-13,-1.1226390600204468,-1.5053483247756958,-1.0886471845522605e-12,-0.9094681739807129,-0.9735940098762512,-2.872509359281433e-13,0.0,2.662181854248047,-1.4652013778686523,-1.5340083837509155,15.5,0.0,2.8177499771118164,-1.5614032745361328,0.3835020959377289,12.0,0.0,2.50089168548584,-1.186966896057129,0.19175104796886444,17.5,0.0,2.5745630264282227,-1.3539791107177734,0.19175104796886444,17.0,0.0,2.2852420806884766,-0.8701086044311523,-1.5340083837509155,20.25,0.0,2.0717382431030273,-0.662684440612793,-1.5340083837509155,14.25,0.0,2.1039247512817383,-0.6912946701049805,-1.5340083837509155,32.5,0.0,2.1314620971679688,-0.7356405258178711,-1.5340083837509155,29.75,0.0,3.228306770324707,-1.1243820190429688,0.0,15.25,,,,,,,,,,,,,,,,,,,,,,,,,
0.0,-1.1239287853240967,2.25533390045166,-4.410159303719352e-13,-1.3841649293899536,-1.5501683950424194,-9.048188088535414e-13,-1.0759479999542236,-0.9112966060638428,-1.4764896933121968e-13,0.0,2.0917654037475586,-1.35040283203125,-1.72575943171978,15.75,0.0,1.943349838256836,-1.1948347091674805,-0.3835020959377289,22.75,0.0,1.910090446472168,-0.9706020355224609,-0.19175104796886444,28.0,0.0,2.643585205078125,-1.417994499206543,0.3835020959377289,12.25,0.0,2.863168716430664,-1.430511474609375,-0.9587552398443222,18.0,0.0,2.949357032775879,-1.4448165893554688,-0.9587552398443222,21.0,0.0,2.972245216369629,-1.5571117401123047,-0.19175104796886444,17.75,0.0,2.922177314758301,-1.4805793762207031,0.0,16.75,0.0,2.8377771377563477,-1.124739646911621,0.0,15.5,0.0,3.131747245788574,-1.3371706008911133,0.0,16.0,,,,,,,,,,,,,,,,,,,,
0.0,-1.26972234249115,2.110633373260498,-4.2473568607516443e-13,-1.4998455047607422,-1.6117221117019653,-7.681189668692912e-13,-1.0878890752792358,-0.8773561716079712,-4.7249530676918283e-14,0.0,1.9297599792480469,-1.166224479675293,-0.3835020959377289,17.25,0.0,2.0717382431030273,-1.239180564880371,-0.7670041918754578,18.75,0.0,2.208709716796875,-1.2631416320800781,-0.7670041918754578,16.75,0.0,2.338886260986328,-1.3407468795776367,-0.19175104796886444,13.25,0.0,2.5037527084350586,-1.4219284057617188,-0.3835020959377289,12.75,0.0,2.7741193771362305,-1.2792348861694336,0.0,15.0,0.0,2.981901168823242,-1.591801643371582,0.0,13.75,0.0,2.967238426208496,-1.3393163681030273,0.0,15.75,,,,,,,,,,,,,,,,,,,,,,,,,,,,,,
0.0,-1.4251619577407837,2.0383732318878174,-4.023835843518231e-13,-1.6462866067886353,-1.5022131204605103,-6.340787270242565e-13,-1.161557912826538,-0.6445416808128357,4.3169630468010284e-14,0.0,1.742720603942871,-1.2717247009277344,0.19175104796886444,22.0,0.0,1.9572973251342773,-1.2084245681762695,0.19175104796886444,17.0,0.0,2.900362014770508,-1.3339519500732422,0.3835020959377289,16.75,0.0,2.9611587524414062,-1.3529062271118164,0.3835020959377289,17.75,0.0,3.010869026184082,-1.4744997024536133,0.3835020959377289,13.5,0.0,2.876400947570801,-1.7774105072021484,0.0,14.75,0.0,2.7898550033569336,-1.2871026992797852,0.0,16.25,0.0,2.9207468032836914,-1.4330148696899414,0.0,17.25,,,,,,,,,,,,,,,,,,,,,,,,,,,,,,
0.0,-1.500978946685791,2.0112287998199463,-3.6958283655685875e-13,-1.5685936212539673,-1.3356634378433228,-4.932864013096339e-13,-0.9768026471138,-0.4197753667831421,1.3352691077394424e-13,0.0,1.8607378005981445,-1.12152099609375,-0.19175104796886444,18.75,0.0,1.9855499267578125,-1.204848289489746,-0.5752531439065933,17.0,0.0,2.9457807540893555,-1.4101266860961914,-0.19175104796886444,18.75,0.0,2.9497146606445312,-1.5835762023925781,-0.19175104796886444,14.0,0.0,2.928614616394043,-1.3124942779541016,-0.19175104796886444,16.5,0.0,2.933621406555176,-1.6611814498901367,0.0,15.5,0.0,2.9228925704956055,-1.4541149139404297,0.0,17.75,0.0,2.8274059295654297,-1.193404197692871,0.0,16.0,,,,,,,,,,,,,,,,,,,,,,,,,,,,,,
0.0,-1.5800906419754028,1.903817057609558,-2.9861258864921636e-13,-1.500070571899414,-1.315863847732544,-3.113840565602266e-13,-0.8137823343276978,-0.3616311252117157,2.448066434897894e-13,0.0,1.5732049942016602,-1.188039779663086,-0.3835020959377289,14.5,0.0,1.623988151550293,-1.2545585632324219,-0.3835020959377289,19.25,0.0,1.634359359741211,-1.3704299926757812,-0.19175104796886444,27.75,0.0,1.6858577728271484,-1.485586166381836,-0.19175104796886444,23.0,0.0,1.5728473663330078,-1.188039779663086,-0.3835020959377289,14.0,0.0,2.9093027114868164,-1.738429069519043,0.19175104796886444,12.25,0.0,2.972245216369629,-1.44195556640625,0.19175104796886444,13.75,0.0,1.8568038940429688,-1.1469125747680664,0.0,31.0,0.0,2.941131591796875,-1.646876335144043,0.0,13.75,0.0,2.9050111770629883,-1.4677047729492188,0.0,16.75,,,,,,,,,,,,,,,,,,,,
0.0,-0.5614334344863892,3.0867903232574463,-2.311703684921597e-14,-0.7761185765266418,-0.8812278509140015,-6.339761072886307e-14,-0.7974048852920532,-0.5289784669876099,-3.2537639032756416e-14,0.0,3.445744514465332,-1.3185739517211914,-0.5752531439065933,12.5,0.0,3.189682960510254,-1.0668039321899414,-0.5752531439065933,24.5,0.0,3.2587051391601562,-1.1358261108398438,-0.5752531439065933,24.25,0.0,3.328084945678711,-1.2227296829223633,-0.5752531439065933,19.5,0.0,3.130674362182617,-0.7839202880859375,-0.7670041918754578,18.75,0.0,2.8252601623535156,0.1995563507080078,-0.9587552398443222,16.5,0.0,2.913236618041992,0.14412403106689453,-0.9587552398443222,17.5,0.0,3.11279296875,0.09906291961669922,0.0,24.25,,,,,,,,,,,,,,,,,,,,,,,,,,,,,,
0.0,-0.708382785320282,2.991034746170044,-2.2054237505241686e-14,-0.9554857611656189,-0.9837391972541809,-5.70832172763075e-14,-0.8712805509567261,-0.6102474331855774,-2.6534875777759273e-14,0.0,3.161787986755371,-1.2967586517333984,-0.3835020959377289,20.0,0.0,3.3059120178222656,-1.3275146484375,-0.3835020959377289,15.25,0.0,2.983689308166504,-1.0542869567871094,-1.72575943171978,21.0,0.0,3.1092166900634766,-1.078963279724121,-1.72575943171978,22.0,0.0,2.921462059020996,-0.6129741668701172,-0.5752531439065933,18.0,0.0,2.81524658203125,-0.1366138458251953,-0.7670041918754578,16.0,,,,,,,,,,,,,,,,,,,,,,,,,,,,,,,,,,,,,,,,
0.0,-0.6969648599624634,2.893953800201416,-1.978777385003294e-14,-0.8391740322113037,-1.0535776615142822,-4.936674712682082e-14,-0.6915032863616943,-0.6386417150497437,-2.0025663053269312e-14,0.0,2.8656721115112305,-0.928044319152832,-1.342257335782051,18.75,0.0,3.014087677001953,-0.9469985961914062,-1.1505062878131866,23.75,0.0,3.056645393371582,-1.0128021240234375,-1.1505062878131866,21.5,0.0,3.154635429382324,-1.0639429092407227,-0.7670041918754578,13.75,0.0,2.5681257247924805,0.06902217864990234,-0.9587552398443222,12.25,0.0,2.638578414916992,0.052928924560546875,-0.7670041918754578,20.25,0.0,2.686142921447754,0.04470348358154297,-0.7670041918754578,20.0,,,,,,,,,,,,,,,,,,,,,,,,,,,,,,,,,,,
0.0,-0.7809022068977356,2.7549097537994385,-1.754756821618908e-14,-0.8754732608795166,-1.2282686233520508,-4.173610513181353e-14,-0.6409734487533569,-0.802729606628418,-1.3841195984493071e-14,0.0,2.986907958984375,-1.568913459777832,-0.3835020959377289,14.75,0.0,2.7419328689575195,-1.1622905731201172,-1.72575943171978,21.75,0.0,2.855658531188965,-1.1848211288452148,-1.342257335782051,21.75,0.0,2.9497146606445312,-1.2341737747192383,-1.342257335782051,18.75,0.0,2.6847124099731445,-0.629425048828125,-1.72575943171978,21.5,0.0,2.51162052154541,-0.24175643920898438,-1.1505062878131866,18.25,0.0,2.5745630264282227,-0.3218650817871094,-1.5340083837509155,22.5,,,,,,,,,,,,,,,,,,,,,,,,,,,,,,,,,,,
0.0,-0.8906527161598206,2.5714478492736816,-1.5256655801990787e-14,-0.946148157119751,-1.4512219429016113,-3.431516477762388e-14,-0.6221250295639038,-0.9891464710235596,-8.138506009522026e-15,0.0,2.706170082092285,-1.4040470123291016,-1.1505062878131866,16.75,0.0,2.8116703033447266,-1.5120506286621094,-0.9587552398443222,13.5,0.0,2.0914077758789062,-0.8904933929443359,-2.109261527657509,22.5,0.0,2.665400505065918,-1.1790990829467773,-0.5752531439065933,17.5,0.0,2.410411834716797,-0.7731914520263672,-2.109261527657509,22.25,0.0,2.568483352661133,-0.9548664093017578,-0.5752531439065933,20.25,0.0,2.3031234741210938,-0.6172657012939453,-2.109261527657509,24.0,0.0,1.8954277038574219,-1.2270212173461914,0.0,17.25,,,,,,,,,,,,,,,,,,,,,,,,,,,,,,
0.0,-1.0758686065673828,2.4205939769744873,-1.2881209499656515e-14,-1.181265115737915,-1.542776107788086,-2.7242861490458202e-14,-0.7868682146072388,-0.9627988934516907,-3.0672549562900647e-15,0.0,2.890348434448242,-1.7216205596923828,0.19175104796886444,12.75,0.0,1.9977092742919922,-0.9430646896362305,-1.342257335782051,30.5,0.0,2.5205612182617188,-1.2502670288085938,-0.19175104796886444,21.25,0.0,2.604961395263672,-1.3453960418701172,-0.19175104796886444,21.5,0.0,2.7033090591430664,-1.4022588729858398,-0.5752531439065933,20.25,0.0,2.8241872787475586,-1.5063285827636719,0.19175104796886444,16.5,0.0,2.0688772201538086,-0.9362697601318359,-1.342257335782051,26.5,0.0,2.31778621673584,-0.9859800338745117,-1.9175104796886444,20.25,,,,,,,,,,,,,,,,,,,,,,,,,,,,,,
0.0,-1.2561867237091064,2.2713053226470947,-1.1523137011368225e-14,-1.3957903385162354,-1.6017688512802124,-2.192323708368523e-14,-0.9333571195602417,-0.8965051174163818,5.79900355030449e-16,0.0,1.773834228515625,-1.2756586074829102,-0.3835020959377289,23.25,0.0,2.056717872619629,-1.1833906173706055,0.7670041918754578,21.75,0.0,2.533435821533203,-1.4280080795288086,-0.19175104796886444,13.75,0.0,2.248048782348633,-1.1926889419555664,0.7670041918754578,22.25,0.0,2.379298210144043,-1.2695789337158203,-2.109261527657509,16.25,0.0,2.760171890258789,-1.4140605926513672,-0.3835020959377289,14.0,0.0,2.871394157409668,-1.479506492614746,-0.3835020959377289,13.5,0.0,2.0002126693725586,-0.9319782257080078,0.0,29.0,0.0,3.245830535888672,-1.3829469680786133,0.0,12.75,0.0,3.1614303588867188,-1.1283159255981445,0.0,19.0,0.0,2.693653106689453,-0.6837844848632812,0.0,18.25,,,,,,,,,,,,,,,
0.0,-1.3862429857254028,2.104552745819092,-1.0889852828353547e-14,-1.47608482837677,-1.6761878728866577,-1.792647654668203e-14,-0.9326168894767761,-0.8670145273208618,3.161130135526601e-15,0.0,1.7902851104736328,-1.2263059616088867,-0.19175104796886444,19.5,0.0,1.9233226776123047,-1.3260841369628906,-0.19175104796886444,18.0,0.0,2.414703369140625,-1.6078948974609375,-1.342257335782051,14.0,0.0,2.148270606994629,-1.3529062271118164,0.19175104796886444,14.75,0.0,1.8593072891235352,-0.7731914520263672,-0.19175104796886444,12.75,0.0,3.2966136932373047,-1.3225078582763672,0.0,12.0,,,,,,,,,,,,,,,,,,,,,,,,,,,,,,,,,,,,,,,,
0.0,-1.4989371299743652,1.9445589780807495,-1.0361709998048599e-14,-1.5079652070999146,-1.7213997840881348,-1.438083898112289e-14,-0.8880777955055237,-0.813326358795166,5.278603448170393e-15,0.0,1.809239387512207,-1.2634992599487305,0.19175104796886444,24.5,0.0,1.8929243087768555,-1.3164281845092773,-0.7670041918754578,23.25,0.0,2.010226249694824,-1.3818740844726562,-0.19175104796886444,17.75,0.0,1.8181800842285156,-1.089334487915039,0.19175104796886444,16.0,,,,,,,,,,,,,,,,,,,,,,,,,,,,,,,,,,,,,,,,,,,,,,,,,,
0.0,-1.5588725805282593,1.8046811819076538,-9.412329212744614e-15,-1.4145004749298096,-1.7249454259872437,-1.0537488816361653e-14,-0.7195845246315002,-0.7381118535995483,7.456041399523869e-15,0.0,1.6973018646240234,-1.2127161026000977,-0.9587552398443222,19.75,0.0,1.718759536743164,-1.2434720993041992,-0.3835020959377289,25.5,0.0,1.8095970153808594,-1.3300180435180664,-0.3835020959377289,18.75,0.0,2.1010637283325195,-1.2860298156738281,-0.3835020959377289,13.75,,,,,,,,,,,,,,,,,,,,,,,,,,,,,,,,,,,,,,,,,,,,,,,,,,
0.0,-1.64055597782135,1.6852000951766968,-9.219452187358285e-15,-1.3742314577102661,-1.6867270469665527,-8.124535048090013e-15,-0.624029278755188,-0.6258332133293152,8.533380911070719e-15,0.0,1.8389225006103516,-1.2720823287963867,-0.19175104796886444,17.5,0.0,1.9723176956176758,-1.237034797668457,-0.19175104796886444,17.75,,,,,,,,,,,,,,,,,,,,,,,,,,,,,,,,,,,,,,,,,,,,,,,,,,,,,,,,,,,,
0.0,-0.2851834297180176,3.198880672454834,-4.1859484162668826e-16,-0.10486683249473572,-0.7675675749778748,-9.704835523936415e-16,-0.4385247826576233,-1.0837197303771973,-5.762241790998061e-16,0.0,3.139615058898926,-1.0056495666503906,-0.7670041918754578,19.75,0.0,3.334522247314453,-0.8322000503540039,-0.7670041918754578,19.0,0.0,3.4536123275756836,-0.8475780487060547,-0.7670041918754578,14.0,0.0,3.059864044189453,-0.41234493255615234,-0.7670041918754578,20.5,0.0,2.9572248458862305,-0.09083747863769531,-0.9587552398443222,20.75,0.0,2.8553009033203125,0.2542734146118164,-0.9587552398443222,17.25,0.0,3.455042839050293,-1.1519193649291992,0.0,23.25,0.0,3.5544633865356445,-1.2685060501098633,0.0,18.25,0.0,3.3692121505737305,-0.6916522979736328,0.0,23.75,0.0,3.093123435974121,0.22208690643310547,0.0,17.75,0.0,3.2039880752563477,0.17344951629638672,0.0,25.5,,,,,,,,,,,,,,,
0.0,-0.4292418658733368,3.1327836513519287,-3.8616263829059074e-16,-0.363215833902359,-0.8435478806495667,-8.748138279792285e-16,-0.6180137991905212,-1.0459387302398682,-4.843994019307764e-16,0.0,3.065943717956543,-0.9588003158569336,-0.9587552398443222,20.0,0.0,3.1142234802246094,-0.9934902191162109,-0.9587552398443222,21.25,0.0,3.264784812927246,-0.9795427322387695,-0.19175104796886444,17.0,0.0,3.407120704650879,-1.1043548583984375,-0.19175104796886444,14.25,0.0,2.967238426208496,0.016808509826660156,-0.9587552398443222,13.5,0.0,2.809882164001465,0.14770030975341797,-0.9587552398443222,12.5,0.0,3.461122512817383,-1.1315345764160156,0.0,22.75,0.0,3.545522689819336,-1.2513399124145508,0.0,19.0,0.0,3.3756494522094727,-0.8300542831420898,0.0,23.25,0.0,3.0584335327148438,0.22459030151367188,0.0,18.25,0.0,3.187894821166992,0.14448165893554688,0.0,25.25,0.0,3.24404239654541,0.10371208190917969,0.0,25.75,,,,,,,,,,
0.0,-0.48593568801879883,3.011728048324585,-3.519286105872261e-16,-0.45102429389953613,-1.011717438697815,-7.763715529702153e-16,-0.6368613839149475,-1.118739366531372,-3.9480004501197966e-16,0.0,3.167867660522461,-1.2198686599731445,-1.1505062878131866,14.0,0.0,2.955794334411621,-1.0449886322021484,-1.1505062878131866,21.25,0.0,3.0541419982910156,-1.0846853256225586,-1.1505062878131866,19.0,0.0,2.862095832824707,-0.5375146865844727,-1.1505062878131866,18.5,0.0,2.7043819427490234,0.041484832763671875,-0.9587552398443222,22.5,0.0,2.6650428771972656,0.11408329010009766,-0.9587552398443222,21.0,0.0,3.531217575073242,-1.3335943222045898,0.0,18.25,0.0,3.430008888244629,-1.1715888977050781,0.0,18.0,0.0,3.166794776916504,-0.27573108673095703,0.0,25.75,0.0,2.9754638671875,0.1863241195678711,0.0,19.25,,,,,,,,,,,,,,,,,,,,
0.0,-0.5678014159202576,2.869673013687134,-3.162862582601532e-16,-0.566659152507782,-1.1996617317199707,-6.772438165486365e-16,-0.6761627793312073,-1.2090204954147339,-3.092195417905494e-16,0.0,2.9407739639282227,-1.1322498321533203,-1.5340083837509155,13.5,0.0,2.866029739379883,-1.0013580322265625,-1.5340083837509155,22.25,0.0,2.828836441040039,-0.8379220962524414,-1.5340083837509155,22.5,0.0,2.7344226837158203,-0.5611181259155273,-0.9587552398443222,20.25,0.0,2.6350021362304688,-0.25641918182373047,-0.9587552398443222,18.5,0.0,2.5398731231689453,-0.05328655242919922,-0.9587552398443222,12.25,,,,,,,,,,,,,,,,,,,,,,,,,,,,,,,,,,,,,,,,
0.0,-0.8394193053245544,2.727292060852051,-2.7266909073468107e-16,-0.999738335609436,-1.3520625829696655,-5.710374257868536e-16,-0.9905231595039368,-1.2369509935379028,-2.240768751935108e-16,0.0,2.1507740020751953,-1.1533498764038086,-1.1505062878131866,15.25,0.0,2.946138381958008,-1.353621482849121,-2.3010125756263733,18.5,0.0,3.0384063720703125,-1.4859437942504883,-0.19175104796886444,16.0,0.0,2.4712085723876953,-1.0396242141723633,-0.19175104796886444,22.75,0.0,2.5473833084106445,-1.074671745300293,-0.19175104796886444,24.5,0.0,2.671480178833008,-1.0854005813598633,-1.5340083837509155,20.0,0.0,2.8055906295776367,-1.2420415878295898,-1.5340083837509155,19.0,0.0,1.6304254531860352,-1.44195556640625,0.0,21.0,0.0,1.8188953399658203,-1.4880895614624023,0.0,16.75,0.0,3.2672882080078125,-1.0052919387817383,0.0,19.0,0.0,3.3845901489257812,-1.179814338684082,0.0,17.25,,,,,,,,,,,,,,,
0.0,-0.9766163229942322,2.5289409160614014,-2.4280718240724712e-16,-1.1307909488677979,-1.6112078428268433,-4.823820870877718e-16,-0.9968917369842529,-1.406907081604004,-1.5322180153208012e-16,0.0,2.3145675659179688,-1.257777214050293,-1.9175104796886444,24.75,0.0,2.6410818099975586,-1.4605522155761719,-2.684514671564102,14.0,0.0,2.4232864379882812,-1.2531280517578125,-1.1505062878131866,25.25,0.0,2.5359392166137695,-1.2617111206054688,-1.9175104796886444,18.5,0.0,2.294182777404785,-0.9212493896484375,-0.9587552398443222,20.5,0.0,2.2237300872802734,-0.5968809127807617,-0.9587552398443222,16.25,0.0,1.6433000564575195,-1.4444589614868164,0.0,22.0,0.0,1.7784833908081055,-1.5628337860107422,0.0,18.75,0.0,3.2465457916259766,-1.0696649551391602,0.0,19.25,,,,,,,,,,,,,,,,,,,,,,,,,
0.0,-1.0827738046646118,2.3480329513549805,-2.220914829047059e-16,-1.2020999193191528,-1.7806447744369507,-4.0874236614246305e-16,-0.9658061861991882,-1.443230152130127,-9.640248732312683e-17,0.0,2.3932456970214844,-1.3332366943359375,-1.1505062878131866,23.5,0.0,2.462625503540039,-1.3954639434814453,-0.7670041918754578,18.25,0.0,2.3031234741210938,-1.179814338684082,-1.5340083837509155,23.0,0.0,2.1990537643432617,-0.8851289749145508,-1.342257335782051,22.75,0.0,2.1332502365112305,-0.7123947143554688,-1.342257335782051,23.25,0.0,1.9240379333496094,-1.1104345321655273,0.0,24.25,0.0,2.1625757217407227,-1.0035037994384766,0.0,23.0,,,,,,,,,,,,,,,,,,,,,,,,,,,,,,,,,,,
0.0,-1.2669752836227417,2.18194317817688,-2.1108548089521836e-16,-1.4623178243637085,-1.8331191539764404,-3.5269041084416296e-16,-1.1568644046783447,-1.2920584678649902,-5.553395494638469e-17,0.0,2.1647214889526367,-1.2205839157104492,0.19175104796886444,23.5,0.0,2.258419990539551,-1.3146400451660156,0.19175104796886444,15.25,0.0,2.01416015625,-1.0128021240234375,0.19175104796886444,23.5,0.0,2.0924806594848633,-1.1283159255981445,0.19175104796886444,24.75,0.0,2.1146535873413086,-1.0950565338134766,0.0,25.75,0.0,3.2186508178710938,-1.043558120727539,0.0,16.5,,,,,,,,,,,,,,,,,,,,,,,,,,,,,,,,,,,,,,,,
0.0,-1.3714118003845215,2.0162150859832764,-1.9270498505380825e-16,-1.4934239387512207,-1.9137052297592163,-2.877570768658851e-16,-1.084159255027771,-1.2422680854797363,-1.0305214594532632e-17,0.0,1.9354820251464844,-1.2445449829101562,-0.5752531439065933,17.75,0.0,1.8696784973144531,-1.1047124862670898,-0.5752531439065933,21.75,0.0,2.21407413482666,-1.2574195861816406,-0.7670041918754578,15.75,0.0,2.339959144592285,-1.3976097106933594,-1.1505062878131866,14.0,0.0,3.043055534362793,-1.439809799194336,0.0,13.5,,,,,,,,,,,,,,,,,,,,,,,,,,,,,,,,,,,,,,,,,,,,,
0.0,-1.487370252609253,1.8636558055877686,-1.831030063288437e-16,-1.5522838830947876,-1.9391371011734009,-2.3878578761103893e-16,-1.0591628551483154,-1.1303495168685913,2.1406934635782374e-17,0.0,1.7781257629394531,-1.317143440246582,-0.19175104796886444,18.0,0.0,1.9733905792236328,-1.248478889465332,-0.19175104796886444,17.25,0.0,2.209782600402832,-1.085042953491211,-0.19175104796886444,13.5,0.0,2.428293228149414,-0.8568763732910156,0.0,25.75,,,,,,,,,,,,,,,,,,,,,,,,,,,,,,,,,,,,,,,,,,,,,,,,,,
0.0,-1.6277110576629639,1.6873142719268799,-1.7949105931840435e-16,-1.6355504989624023,-1.9997483491897583,-2.0094604653033115e-16,-1.05144464969635,-1.0707770586013794,4.4007921029397295e-17,0.0,1.6933679580688477,-1.4165639877319336,0.19175104796886444,19.5,0.0,1.7963647842407227,-1.4061927795410156,-0.19175104796886444,17.5,0.0,2.3653507232666016,-0.9777545928955078,0.0,25.75,,,,,,,,,,,,,,,,,,,,,,,,,,,,,,,,,,,,,,,,,,,,,,,,,,,,,,,
0.0,-1.6757606267929077,1.674862265586853,-1.5938334418353451e-16,-1.5595812797546387,-1.7473393678665161,-1.4543047484587984e-16,-0.926146388053894,-0.7175769805908203,7.560110514401492e-17,0.0,1.9783973693847656,-1.1404752731323242,0.19175104796886444,18.5,0.0,2.1092891693115234,-1.1372566223144531,0.19175104796886444,21.25,0.0,2.206563949584961,-1.1415481567382812,0.19175104796886444,19.75,0.0,2.361774444580078,-1.1276006698608398,0.19175104796886444,13.0,,,,,,,,,,,,,,,,,,,,,,,,,,,,,,,,,,,,,,,,,,,,,,,,,,
0.0,-1.713993787765503,1.615389347076416,-1.368753626692726e-16,-1.4610228538513184,-1.58828604221344,-9.146268381896835e-17,-0.7799559831619263,-0.49198561906814575,1.041564188281948e-16,0.0,1.6965866088867188,-1.2202262878417969,-0.19175104796886444,15.0,0.0,1.752018928527832,-1.2273788452148438,0.19175104796886444,21.25,0.0,1.8482208251953125,-1.2191534042358398,0.19175104796886444,15.5,0.0,1.784205436706543,-1.16729736328125,0.0,12.75,0.0,2.4586915969848633,-1.4537572860717773,0.0,14.5,,,,,,,,,,,,,,,,,,,,,,,,,,,,,,,,,,,,,,,,,,,,,
0.0,-0.4350309669971466,3.0484931468963623,2.579484942291876e-29,0.0183529332280159,-0.3068574070930481,2.73395144514247e-29,0.22580021619796753,-0.22042161226272583,-1.5710937526310703e-29,0.0,2.9271841049194336,-1.5842914581298828,-0.7670041918754578,18.25,0.0,3.232240676879883,-1.2481212615966797,-0.7670041918754578,18.0,0.0,3.312349319458008,-1.3750791549682617,-0.3835020959377289,15.0,0.0,3.004789352416992,-0.2911090850830078,-0.3835020959377289,19.75,0.0,2.9293298721313477,-0.18131732940673828,-0.5752531439065933,23.0,0.0,2.8606653213500977,-0.04649162292480469,-0.7670041918754578,18.75,0.0,2.695441246032715,0.27680397033691406,-0.7670041918754578,12.5,0.0,3.270864486694336,1.5009641647338867,-0.3835020959377289,14.75,0.0,3.209710121154785,-1.2041330337524414,0.0,23.0,0.0,3.152132034301758,-0.6687641143798828,0.0,24.25,0.0,3.0423402786254883,-0.06580352783203125,0.0,29.0,,,,,,,,,,,,,,,
0.0,-0.5563890933990479,2.99495792388916,2.0706337879791094e-29,-0.16642695665359497,-0.41408485174179077,1.572315363976264e-29,0.057172372937202454,-0.3468582034111023,-2.2090094470709018e-29,0.0,3.076314926147461,-1.2238025665283203,-0.5752531439065933,21.0,0.0,3.1156539916992188,-1.3933181762695312,-0.7670041918754578,18.25,0.0,2.9822587966918945,-1.1065006256103516,-0.5752531439065933,18.0,0.0,3.3080577850341797,-1.2087821960449219,-0.7670041918754578,13.0,0.0,2.8935670852661133,-0.5958080291748047,-0.5752531439065933,15.5,0.0,2.7698278427124023,-0.16200542449951172,-0.7670041918754578,15.25,0.0,2.6568174362182617,0.0972747802734375,-0.7670041918754578,12.25,0.0,3.2175779342651367,-1.1973381042480469,0.0,22.0,0.0,3.3670663833618164,-1.110076904296875,0.0,17.25,0.0,3.1621456146240234,-0.7774829864501953,0.0,23.75,0.0,3.0537843704223633,-0.12981891632080078,0.0,27.75,0.0,2.898573875427246,0.11050701141357422,0.0,22.5,,,,,,,,,,
0.0,-0.5229883790016174,2.9122605323791504,1.6867426860627088e-29,-0.06520120054483414,-0.5415974855422974,6.587467332742561e-30,0.14948318898677826,-0.4709797501564026,-2.653429818800409e-29,0.0,2.891063690185547,-1.4258623123168945,-0.7670041918754578,17.75,0.0,2.8924942016601562,-1.1715888977050781,-0.7670041918754578,20.5,0.0,2.842068672180176,-0.6519556045532227,-0.7670041918754578,19.0,0.0,2.670764923095703,-0.018596649169921875,-0.7670041918754578,22.5,0.0,2.5534629821777344,0.14340877532958984,-0.9587552398443222,18.0,0.0,2.6046037673950195,0.1430511474609375,-0.7670041918754578,24.0,0.0,3.1850337982177734,-1.2803077697753906,0.0,20.75,0.0,3.143906593322754,-0.8436441421508789,0.0,22.0,0.0,3.045201301574707,-0.13017654418945312,0.0,27.25,0.0,2.9668807983398438,0.034332275390625,0.0,28.5,0.0,2.854585647583008,0.16200542449951172,0.0,23.75,,,,,,,,,,,,,,,
0.0,-0.5125024318695068,2.819608449935913,1.3080983890752713e-29,-0.012851953506469727,-0.6881341934204102,-1.7571921501854556e-30,0.19283264875411987,-0.61202073097229,-3.0222932504726204e-29,0.0,2.970457077026367,-1.190185546875,-1.1505062878131866,14.75,0.0,2.8935670852661133,-1.056075096130371,-1.1505062878131866,18.5,0.0,2.8009414672851562,-0.7932186126708984,-0.9587552398443222,19.75,0.0,2.6918649673461914,-0.3025531768798828,-0.9587552398443222,22.5,0.0,2.605319023132324,-0.13768672943115234,-0.9587552398443222,22.75,0.0,2.5033950805664062,0.10979175567626953,-0.9587552398443222,18.25,0.0,3.2079219818115234,-1.1987686157226562,0.0,19.75,0.0,3.417849540710449,-0.9423494338989258,0.0,16.25,0.0,2.9665231704711914,0.009298324584960938,0.0,27.5,0.0,2.8399229049682617,0.15091896057128906,0.0,23.0,,,,,,,,,,,,,,,,,,,,
0.0,-0.566697895526886,2.714853525161743,9.087990952873883e-30,-0.08115404099225998,-0.8372466564178467,-9.655147981156928e-30,0.12638579308986664,-0.7308745384216309,-3.3392029163356634e-29,0.0,2.8055906295776367,-1.4297962188720703,-1.1505062878131866,16.25,0.0,2.7219057083129883,-1.0907649993896484,-1.1505062878131866,25.0,0.0,2.754092216491699,-1.239180564880371,-1.1505062878131866,22.0,0.0,2.678990364074707,-0.8547306060791016,-1.1505062878131866,24.25,0.0,2.578139305114746,-0.3350973129272461,-0.9587552398443222,21.0,0.0,2.349257469177246,0.0629425048828125,-0.7670041918754578,16.0,0.0,2.4279356002807617,0.02574920654296875,-0.7670041918754578,20.5,0.0,3.1589269638061523,-1.296401023864746,0.0,19.75,0.0,3.384232521057129,-1.0617971420288086,0.0,16.25,,,,,,,,,,,,,,,,,,,,,,,,,
0.0,-0.7008712887763977,2.628532886505127,5.8975781618042865e-30,-0.2923511862754822,-0.9105178713798523,-1.578180272046754e-29,-0.06789515912532806,-0.72430819272995,-3.5203929008708455e-29,0.0,2.6421546936035156,-1.201629638671875,-0.3835020959377289,19.25,0.0,2.756953239440918,-1.3840198516845703,-0.3835020959377289,19.5,0.0,2.811312675476074,-1.5177726745605469,-0.3835020959377289,18.0,0.0,2.553105354309082,-0.9416341781616211,-1.1505062878131866,24.5,0.0,2.5370121002197266,-0.6973743438720703,-0.9587552398443222,26.5,0.0,2.4547576904296875,-0.5457401275634766,-1.1505062878131866,20.0,0.0,3.404974937438965,-1.0875463485717773,0.0,14.75,,,,,,,,,,,,,,,,,,,,,,,,,,,,,,,,,,,
0.0,-0.8828824162483215,2.491973400115967,3.090804973283743e-30,-0.5701196789741516,-1.0527464151382446,-2.0753147005236318e-29,-0.3026856780052185,-0.7838302850723267,-3.6166776619546087e-29,0.0,2.419710159301758,-1.3850927352905273,-0.7670041918754578,19.5,0.0,2.5244951248168945,-1.6071796417236328,-0.5752531439065933,13.0,0.0,2.0177364349365234,-1.021742820739746,-0.9587552398443222,23.5,0.0,2.3249387741088867,-1.1490583419799805,-0.7670041918754578,29.75,0.0,2.3578405380249023,-1.260995864868164,-0.7670041918754578,25.0,0.0,2.281308174133301,-0.9266138076782227,-0.7670041918754578,26.75,,,,,,,,,,,,,,,,,,,,,,,,,,,,,,,,,,,,,,,,
0.0,-1.06734299659729,2.3392937183380127,5.417531847685538e-31,-0.8465676307678223,-1.1703318357467651,-2.4822000518065238e-29,-0.5369285345077515,-0.7778386473655701,-3.648258399144252e-29,0.0,1.9179582595825195,-1.0489225387573242,0.19175104796886444,25.25,0.0,2.0273923873901367,-1.246333122253418,-1.72575943171978,25.5,0.0,2.1725893020629883,-1.2971162796020508,-0.19175104796886444,24.0,0.0,2.2687911987304688,-1.363992691040039,-0.19175104796886444,17.75,0.0,2.399325370788574,-1.4641284942626953,0.3835020959377289,12.75,0.0,1.857161521911621,-0.8776187896728516,0.19175104796886444,15.75,,,,,,,,,,,,,,,,,,,,,,,,,,,,,,,,,,,,,,,,
0.0,-1.2035225629806519,2.1822431087493896,-1.7911761620654682e-30,-1.0080779790878296,-1.2861952781677246,-2.804418513468615e-29,-0.6489197015762329,-0.7872069478034973,-3.621685982589677e-29,0.0,1.8396377563476562,-1.2023448944091797,-0.19175104796886444,25.25,0.0,1.9047260284423828,-1.2685060501098633,-0.19175104796886444,23.0,0.0,1.7699003219604492,-1.107931137084961,0.19175104796886444,15.5,0.0,2.1353960037231445,-1.1898279190063477,-0.7670041918754578,15.25,0.0,3.0573606491088867,-1.4230012893676758,0.0,13.25,,,,,,,,,,,,,,,,,,,,,,,,,,,,,,,,,,,,,,,,,,,,,
0.0,-1.2901324033737183,2.0299997329711914,-3.8392040463957786e-30,-1.0504412651062012,-1.3887110948562622,-3.0374780043778985e-29,-0.6356791853904724,-0.8024296164512634,-3.5367530738953075e-29,0.0,1.6690492630004883,-1.1855363845825195,-0.19175104796886444,17.5,0.0,1.7366409301757812,-1.2116432189941406,-0.19175104796886444,23.25,0.0,1.9841194152832031,-1.1461973190307617,-0.9587552398443222,18.0,0.0,2.2280216217041016,-1.1519193649291992,-0.7670041918754578,14.5,,,,,,,,,,,,,,,,,,,,,,,,,,,,,,,,,,,,,,,,,,,,,,,,,,
0.0,-1.2852752208709717,1.9710434675216675,-5.418586595256644e-30,-0.9239243865013123,-1.3082880973815918,-3.1679853368672077e-29,-0.4818693697452545,-0.6378294229507446,-3.388659894527866e-29,0.0,1.67083740234375,-1.0660886764526367,-0.5752531439065933,13.25,0.0,1.8464326858520508,-1.0546445846557617,-0.3835020959377289,16.75,0.0,2.0978450775146484,-1.0535717010498047,-0.3835020959377289,15.5,0.0,2.578854560852051,-0.9938478469848633,-0.3835020959377289,13.25,0.0,2.7948617935180664,-0.6880760192871094,-1.1505062878131866,13.25,,,,,,,,,,,,,,,,,,,,,,,,,,,,,,,,,,,,,,,,,,,,,
0.0,-1.3707528114318848,1.835531234741211,-7.08278867873273e-30,-0.9913223385810852,-1.3429712057113647,-3.284379213982804e-29,-0.5319372415542603,-0.5758259892463684,-3.2455491561118655e-29,0.0,1.6529560089111328,-1.0721683502197266,-0.19175104796886444,20.25,0.0,1.6518831253051758,-1.1565685272216797,0.19175104796886444,24.5,0.0,1.680135726928711,-1.2531280517578125,0.19175104796886444,25.75,0.0,1.9054412841796875,-1.1998414993286133,-0.19175104796886444,19.5,0.0,1.6311407089233398,-1.169443130493164,0.0,12.0,0.0,1.6998052597045898,-1.2531280517578125,0.0,27.25,0.0,2.1532773971557617,-1.0231733322143555,0.0,22.75,,,,,,,,,,,,,,,,,,,,,,,,,,,,,,,,,,,
0.0,-1.3998078107833862,1.8055343627929688,-8.588800443718095e-30,-0.9638658165931702,-1.174513339996338,-3.3548829953485136e-29,-0.5093762278556824,-0.3207923173904419,-3.08236390821772e-29,0.0,1.7741918563842773,-1.0743141174316406,0.19175104796886444,13.75,0.0,1.9240379333496094,-1.1161565780639648,0.19175104796886444,21.25,0.0,2.101421356201172,-1.0045766830444336,0.19175104796886444,21.0,0.0,2.296328544616699,-0.8790493011474609,0.19175104796886444,14.75,0.0,1.671910285949707,-1.2763738632202148,0.0,27.25,0.0,1.6189813613891602,-1.1712312698364258,0.0,13.5,0.0,2.718687057495117,-1.398324966430664,0.0,16.5,0.0,2.851724624633789,-1.4988183975219727,0.0,14.75,0.0,2.197265625,-0.9788274765014648,0.0,22.5,,,,,,,,,,,,,,,,,,,,,,,,,
0.0,-0.5021927356719971,2.815023183822632,-4.577196326960663e-31,-0.3496688902378082,-0.566323459148407,-7.861512496830443e-31,-0.13256695866584778,-0.334244966506958,-1.86332193976809e-32,0.0,2.9039382934570312,-1.5496015548706055,-1.1505062878131866,17.0,0.0,2.9093027114868164,-1.0943412780761719,-0.7670041918754578,17.25,0.0,3.1031370162963867,-1.3761520385742188,-0.3835020959377289,14.5,0.0,2.825617790222168,-0.47457218170166016,-0.5752531439065933,19.0,0.0,2.610325813293457,0.057220458984375,-0.5752531439065933,23.25,0.0,2.6825666427612305,-0.0010728836059570312,-0.5752531439065933,22.0,0.0,2.5534629821777344,0.12803077697753906,-0.5752531439065933,17.25,0.0,2.748727798461914,-0.043272972106933594,0.0,28.5,0.0,3.2683610916137695,1.4841556549072266,0.0,14.0,,,,,,,,,,,,,,,,,,,,,,,,,
0.0,-0.5252019762992859,2.7373571395874023,-4.205564258145937e-31,-0.3339337110519409,-0.6522673964500427,-6.357973877919661e-31,-0.10046325623989105,-0.4102849066257477,7.777852916530726e-32,0.0,2.7462244033813477,-1.627206802368164,-0.9587552398443222,12.25,0.0,2.7712583541870117,-1.2459754943847656,-0.9587552398443222,18.75,0.0,2.737283706665039,-0.7910728454589844,-0.9587552398443222,20.5,0.0,2.66110897064209,-0.38123130798339844,-0.5752531439065933,24.0,0.0,2.5548934936523438,-0.09226799011230469,-0.7670041918754578,17.75,0.0,2.6160478591918945,-0.17559528350830078,-0.7670041918754578,24.25,0.0,3.280162811279297,1.4702081680297852,0.0,14.5,,,,,,,,,,,,,,,,,,,,,,,,,,,,,,,,,,,
