tid,posx,posy,posz,velx,vely,velz,accx,accy,accz,pointx1,pointy1,pointz1,doppler1,snr1,pointx2,pointy2,pointz2,doppler2,snr2,pointx3,pointy3,pointz3,doppler3,snr3,pointx4,pointy4,pointz4,doppler4,snr4,pointx5,pointy5,pointz5,doppler5,snr5,pointx6,pointy6,pointz6,doppler6,snr6,pointx7,pointy7,pointz7,doppler7,snr7,pointx8,pointy8,pointz8,doppler8,snr8,pointx9,pointy9,pointz9,doppler9,snr9
0.0,2.228426092187874e-05,3.167997360229492,0.4314881682395935,0.0001377668813802,0.1150828152894973,-0.3952648043632507,4.697714757639915e-05,0.1263440251350402,-0.2009062618017196,0.0,3.24404239654541,0.4557039260864258,-0.1917510479688644,18.0,0.0,3.253340721130371,0.4596378326416015,-0.1917510479688644,21.0,0.0,3.3066272735595703,0.3909732818603515,-0.1917510479688644,15.25,0.0,3.498673439025879,-0.48879127502441405,0.0,19.25,0.0,3.426432609558105,-0.3339384078979492,0.0,21.75,,,,,,,,,,,,,,,,,,,,
0.0,3.0970135412644595e-05,3.164136409759521,0.43546786606311794,0.0001361318136332,0.0820227935910224,-0.3515236377716064,4.367698056739755e-05,0.0641457289457321,-0.1564697623252868,0.0,3.1839609146118164,0.5737211227416992,-0.1917510479688644,16.0,0.0,3.209352493286133,0.5937482833862304,-0.1917510479688644,17.0,0.0,3.491520881652832,-0.4816387176513672,0.0,18.5,0.0,3.413915634155273,-0.27063827514648436,0.0,21.75,0.0,3.0802488327026367,0.8448030471801757,0.0,21.75,0.0,2.9497146606445312,0.9174015045166015,0.0,19.75,,,,,,,,,,,,,,,
0.0,3.80264209525194e-05,3.157670497894287,0.4363135069608688,0.000133197318064,0.0467073544859886,-0.3149600327014923,4.0002851164899766e-05,0.0076899193227291,-0.1205227449536323,0.0,3.170371055603028,0.5561973571777343,-0.1917510479688644,19.0,0.0,3.18753719329834,0.5583431243896484,-0.1917510479688644,19.5,0.0,3.490447998046875,-0.48235397338867186,0.0,18.0,0.0,3.4067630767822266,-0.22128562927246087,0.0,21.5,0.0,3.2547712326049805,0.3877546310424804,0.0,23.5,0.0,3.121376037597656,0.6416704177856445,0.0,23.5,,,,,,,,,,,,,,,
0.0,4.720695869764313e-05,3.1491472721099854,0.4450720965862274,0.0001328607031609,0.0210517141968011,-0.2702613770961761,3.789699621847831e-05,-0.022801749408245,-0.0811887085437774,0.0,3.072023391723633,0.7314350128173828,-0.1917510479688644,13.25,0.0,3.506898880004883,-0.4165504455566406,0.0,17.5,0.0,3.4074783325195312,-0.2080533981323242,0.0,21.25,,,,,,,,,,,,,,,,,,,,,,,,,,,,,,
0.0,5.043636338086799e-05,3.1309731006622314,0.5387123942375183,0.0001267938059754,-0.0221247281879186,-0.1130582243204116,3.322218981338665e-05,-0.0699023604393005,0.0327822491526603,0.0,3.0802488327026367,0.901308250427246,-0.1917510479688644,12.0,0.0,3.074169158935547,0.900235366821289,-0.1917510479688644,12.25,0.0,3.516554832458496,-0.4244182586669922,0.0,18.75,0.0,3.4085512161254883,-0.2431009292602539,0.0,21.25,,,,,,,,,,,,,,,,,,,,,,,,,
0.0,6.328185554593801e-05,3.128411054611206,0.5275704979896545,0.0,0.0,0.0,0.0,0.0,0.0,,,,,,,,,,,,,,,,,,,,,,,,,,,,,,,,,,,,,,,,,,,,,
0.0,6.328185554593801e-05,3.128411054611206,0.5275704979896545,0.0,0.0,0.0,0.0,0.0,0.0,0.0,3.497958183288574,-0.5077455520629883,0.0,18.75,,,,,,,,,,,,,,,,,,,,,,,,,,,,,,,,,,,,,,,,
0.0,6.328185554593801e-05,3.128411054611206,0.5275704979896545,0.0,0.0,0.0,0.0,0.0,0.0,0.0,3.4171342849731445,-0.3511045455932617,0.0,21.25,0.0,3.48508358001709,-0.5356405258178711,0.0,18.5,,,,,,,,,,,,,,,,,,,,,,,,,,,,,,,,,,,
0.0,6.328185554593801e-05,3.128411054611206,0.5275704979896545,0.0,0.0,0.0,0.0,0.0,0.0,0.0,3.4199953079223637,-0.48807601928710936,0.0,20.75,0.0,3.484725952148437,-0.5842779159545899,0.0,19.5,,,,,,,,,,,,,,,,,,,,,,,,,,,,,,,,,,,
0.0,6.328185554593801e-05,3.128411054611206,0.5275704979896545,0.0,0.0,0.0,0.0,0.0,0.0,,,,,,,,,,,,,,,,,,,,,,,,,,,,,,,,,,,,,,,,,,,,,
0.0,6.328185554593801e-05,3.128411054611206,0.5275704979896545,0.0,0.0,0.0,0.0,0.0,0.0,0.0,3.147125244140625,0.6616975784301757,0.0,22.25,,,,,,,,,,,,,,,,,,,,,,,,,,,,,,,,,,,,,,,,
0.0,5.361268631531857e-05,3.124831199645996,0.5212910890579223,-9.347954801341984e-06,-0.024746011942625,-0.0096676778048276,-4.476092726690695e-06,-0.0403274185955524,-0.0087775820866227,0.0,3.197908401489258,0.4918243408203125,-0.1917510479688644,16.0,0.0,3.1964778900146484,0.5483295440673828,-0.1917510479688644,16.75,0.0,3.1585693359375,0.625577163696289,0.0,24.25,,,,,,,,,,,,,,,,,,,,,,,,,,,,,,
0.0,5.361268631531857e-05,3.124831199645996,0.5212910890579223,-9.347954801341984e-06,-0.024746011942625,-0.0096676778048276,-4.476092726690695e-06,-0.0403274185955524,-0.0087775820866227,0.0,3.487586975097656,-0.5753372192382813,0.0,19.75,,,,,,,,,,,,,,,,,,,,,,,,,,,,,,,,,,,,,,,,
0.0,5.361268631531857e-05,3.124831199645996,0.5212910890579223,-9.347954801341984e-06,-0.024746011942625,-0.0096676778048276,-4.476092726690695e-06,-0.0403274185955524,-0.0087775820866227,0.0,3.428936004638672,-0.5946491241455079,0.0,20.5,0.0,3.470420837402344,-0.6629560470581055,0.0,19.5,,,,,,,,,,,,,,,,,,,,,,,,,,,,,,,,,,,
0.0,4.979048389941454e-05,3.12256121635437,0.4874269783496856,-1.3031532944296488e-05,-0.0358295068144798,-0.0556643083691597,-6.239346475922503e-06,-0.0575823746621608,-0.0412546023726463,0.0,3.1414031982421875,0.2189542770385742,-0.1917510479688644,13.25,0.0,3.4743547439575195,-0.5985830307006836,0.0,20.0,0.0,3.428220748901367,-0.5449388504028321,0.0,21.75,0.0,2.9010772705078125,0.8358623504638671,0.0,15.25,,,,,,,,,,,,,,,,,,,,,,,,,
0.0,4.979048389941454e-05,3.12256121635437,0.4874269783496856,-1.3031532944296488e-05,-0.0358295068144798,-0.0556643083691597,-6.239346475922503e-06,-0.0575823746621608,-0.0412546023726463,0.0,3.13711166381836,0.6888772964477539,0.0,23.5,,,,,,,,,,,,,,,,,,,,,,,,,,,,,,,,,,,,,,,,
0.0,4.225749580655247e-05,3.1167283058166504,0.5551807105541229,-1.9180497474735603e-05,-0.020616590976715,0.0362978503108024,-8.77816910360707e-06,-0.0218764916062355,0.0237863808870315,0.0,2.9311180114746094,0.8161928176879882,0.1917510479688644,15.75,0.0,2.990126609802246,0.8458759307861328,0.1917510479688644,15.0,0.0,3.407835960388184,-0.5166862487792969,0.0,20.0,0.0,3.1603574752807617,0.625577163696289,0.0,22.75,0.0,2.9125213623046875,0.762906265258789,0.0,15.0,0.0,2.9854774475097656,0.7990266799926757,0.0,24.75,0.0,3.0351877212524414,0.7811452865600585,0.0,26.75,,,,,,,,,,
0.0,3.4257904189871624e-05,3.130580425262451,0.5460294902324676,-2.591263546491973e-05,0.0170502513647079,0.0258094444870948,-1.162965054390952e-05,0.0282320417463779,0.0193381812423467,0.0,3.158211708068848,0.4596378326416015,0.1917510479688644,20.25,0.0,3.1871795654296875,0.4481937408447265,0.1917510479688644,19.25,0.0,3.0677318572998047,0.6041194915771484,0.1917510479688644,13.5,0.0,3.388524055480957,-0.5503032684326172,0.0,20.25,0.0,3.1614303588867188,0.6034042358398437,0.0,23.5,0.0,2.9189586639404297,0.741090965270996,0.0,15.0,0.0,2.991199493408203,0.783648681640625,0.0,25.0,0.0,3.039836883544922,0.7775690078735351,0.0,27.25,,,,,
0.0,2.913826574513223e-05,3.1233153343200684,0.5993739485740661,-3.0331677407957613e-05,0.0150163434445858,0.0982659235596656,-1.3560118532041088e-05,0.0344294905662536,0.0699733793735504,0.0,3.0509233474731445,0.8194114685058593,0.1917510479688644,19.75,0.0,3.1031370162963867,0.7164146423339843,0.1917510479688644,16.0,0.0,2.9768943786621094,0.9485151290893554,-0.1917510479688644,16.0,0.0,3.390669822692871,-0.5710456848144532,0.0,20.0,0.0,3.483295440673828,-0.5878541946411133,0.0,17.5,0.0,2.922534942626953,0.6903078079223632,0.0,14.5,0.0,2.9990673065185547,0.7278587341308593,0.0,24.0,,,,,,,,,,
0.0,2.663035411387682e-05,3.1108996868133545,0.6426566660404205,-3.247254062443972e-05,0.0022281883284449,0.1568027436733245,-1.4494436982204206e-05,0.0278890542685985,0.1104102432727813,0.0,2.9157400131225586,0.9935762405395507,-0.1917510479688644,16.5,0.0,2.9407739639282227,0.9935762405395507,0.1917510479688644,17.5,0.0,3.395318984985352,-0.5388591766357422,0.0,20.0,0.0,3.4804344177246094,-0.5849931716918946,0.0,17.5,0.0,2.92360782623291,0.6652738571166992,0.0,14.75,0.0,3.010869026184082,0.669207763671875,0.0,23.75,0.0,3.0684471130371094,0.6545450210571289,0.0,26.25,,,,,,,,,,
0.0,2.663035411387682e-05,3.1108996868133545,0.6426566660404205,-3.247254062443972e-05,0.0022281883284449,0.1568027436733245,-1.4494436982204206e-05,0.0278890542685985,0.1104102432727813,0.0,3.3856630325317383,-0.5259845733642579,0.0,20.0,0.0,3.488302230834961,-0.5649660110473633,0.0,17.75,0.0,2.9278993606567383,0.6520416259765625,0.0,14.25,,,,,,,,,,,,,,,,,,,,,,,,,,,,,,
0.0,2.663035411387682e-05,3.1108996868133545,0.6426566660404205,-3.247254062443972e-05,0.0022281883284449,0.1568027436733245,-1.4494436982204206e-05,0.0278890542685985,0.1104102432727813,,,,,,,,,,,,,,,,,,,,,,,,,,,,,,,,,,,,,,,,,,,,,
0.0,2.663035411387682e-05,3.1108996868133545,0.6426566660404205,-3.247254062443972e-05,0.0022281883284449,0.1568027436733245,-1.4494436982204206e-05,0.0278890542685985,0.1104102432727813,0.0,2.902865409851074,0.808682632446289,0.0,14.5,0.0,2.98762321472168,0.821199607849121,0.0,24.25,,,,,,,,,,,,,,,,,,,,,,,,,,,,,,,,,,,
0.0,2.663035411387682e-05,3.1108996868133545,0.6426566660404205,-3.247254062443972e-05,0.0022281883284449,0.1568027436733245,-1.4494436982204206e-05,0.0278890542685985,0.1104102432727813,0.0,3.534078598022461,-0.41690807342529296,0.0,14.25,0.0,3.3724308013916016,-0.1994703292846679,0.0,17.0,,,,,,,,,,,,,,,,,,,,,,,,,,,,,,,,,,,
0.0,2.4831762857502326e-05,3.109442234039306,0.6458827078342437,-3.4388373023830354e-05,-0.0123671479523181,0.1583900302648544,-1.5462916053365916e-05,0.0031223855912685,0.1086770966649055,0.0,3.2079219818115234,0.614133071899414,-0.1917510479688644,12.5,0.0,3.0881166458129883,0.7929470062255859,-0.1917510479688644,13.0,0.0,3.562331199645996,-0.34502487182617186,0.0,13.25,0.0,3.3731460571289062,0.06553192138671882,0.0,15.25,,,,,,,,,,,,,,,,,,,,,,,,,
0.0,2.4831762857502326e-05,3.109442234039306,0.6458827078342437,-3.4388373023830354e-05,-0.0123671479523181,0.1583900302648544,-1.5462916053365916e-05,0.0031223855912685,0.1086770966649055,0.0,3.398895263671875,-0.18766860961914061,0.0,16.25,0.0,3.550887107849121,-0.3135536193847656,0.0,13.25,,,,,,,,,,,,,,,,,,,,,,,,,,,,,,,,,,,
0.0,2.4831762857502326e-05,3.109442234039306,0.6458827078342437,-3.4388373023830354e-05,-0.0123671479523181,0.1583900302648544,-1.5462916053365916e-05,0.0031223855912685,0.1086770966649055,0.0,3.554105758666992,-0.40939788818359374,0.0,14.75,0.0,3.4017562866210938,-0.2917383193969726,0.0,16.75,0.0,3.145694732666016,0.5855228424072265,0.0,20.75,0.0,2.9779672622680664,0.7986690521240234,0.0,23.5,0.0,3.0384063720703125,0.7071163177490234,0.0,25.25,,,,,,,,,,,,,,,,,,,,
0.0,2.188621692766901e-05,3.1093690395355225,0.6408511221408844,-3.691043457365595e-05,-0.0064478977583348,0.152886301279068,-1.655896812735591e-05,0.0140521079301834,0.1061845198273658,0.0,3.037691116333008,0.5794431686401367,-0.1917510479688644,14.25,0.0,3.087759017944336,0.6030466079711914,0.1917510479688644,18.0,0.0,3.142833709716797,0.6173517227172851,0.1917510479688644,15.0,0.0,3.5501718521118164,-0.43800811767578124,0.0,14.75,0.0,3.1954050064086914,0.4388954162597656,0.0,18.5,0.0,2.9250383377075195,0.9420778274536132,0.0,23.0,0.0,2.9697418212890625,0.924196434020996,0.0,23.25,,,,,,,,,,
0.0,1.9322555090184323e-05,3.110068798065185,0.6519471824169158,-3.896453563356772e-05,0.006778800394386,0.1704830974340438,-1.7401340301148593e-05,0.0373768545687198,0.1210141032934188,0.0,3.1592845916748047,0.706758689880371,0.1917510479688644,14.25,0.0,3.000497817993164,0.7239248275756835,0.1917510479688644,13.75,0.0,3.0766725540161133,0.7142688751220703,0.1917510479688644,16.5,0.0,3.551602363586426,-0.4312131881713867,0.0,15.5,0.0,2.995848655700684,0.8254911422729492,0.0,22.5,0.0,2.92825698852539,0.9216930389404296,0.0,22.5,,,,,,,,,,,,,,,
0.0,1.8848291801987216e-05,3.1115505695343018,0.6558797478675842,-3.955113425035961e-05,0.0016207941807806,0.1742969006299972,-1.7717200535116717e-05,0.0259345099329948,0.1221527755260467,0.0,3.2215118408203125,0.7936622619628906,-0.1917510479688644,12.5,0.0,3.543734550476074,-0.4344318389892578,0.0,15.25,0.0,3.0623674392700195,0.7114078521728515,0.0,22.5,0.0,2.837777137756348,0.958528709411621,0.0,12.75,0.0,2.9404163360595703,0.9238388061523437,0.0,20.75,,,,,,,,,,,,,,,,,,,,
0.0,1.8848291801987216e-05,3.1115505695343018,0.6558797478675842,-3.955113425035961e-05,0.0016207941807806,0.1742969006299972,-1.7717200535116717e-05,0.0259345099329948,0.1221527755260467,0.0,3.525853157043457,-0.4705522537231445,0.0,15.5,,,,,,,,,,,,,,,,,,,,,,,,,,,,,,,,,,,,,,,,
0.0,1.8848291801987216e-05,3.1115505695343018,0.6558797478675842,-3.955113425035961e-05,0.0016207941807806,0.1742969006299972,-1.7717200535116717e-05,0.0259345099329948,0.1221527755260467,,,,,,,,,,,,,,,,,,,,,,,,,,,,,,,,,,,,,,,,,,,,,
0.0,1.751474519551266e-05,3.1062979698181152,0.6753269255161285,-4.052537042298354e-05,0.0047040889039635,0.2025339752435684,-1.8085858755512163e-05,0.038742572069168,0.1435961723327636,0.0,2.94649600982666,0.9141828536987304,0.1917510479688644,16.5,0.0,2.9758214950561523,0.9109642028808593,0.1917510479688644,17.75,0.0,2.897500991821289,1.0300542831420898,0.0,20.0,0.0,2.797722816467285,1.0761882781982421,0.0,13.0,,,,,,,,,,,,,,,,,,,,,,,,,
0.0,1.751474519551266e-05,3.1062979698181152,0.6753269255161285,-4.052537042298354e-05,0.0047040889039635,0.2025339752435684,-1.8085858755512163e-05,0.038742572069168,0.1435961723327636,0.0,2.9053688049316406,1.0314847946166992,0.0,21.25,0.0,2.789497375488281,1.1273290634155273,0.0,13.5,,,,,,,,,,,,,,,,,,,,,,,,,,,,,,,,,,,
0.0,1.751474519551266e-05,3.1062979698181152,0.6753269255161285,-4.052537042298354e-05,0.0047040889039635,0.2025339752435684,-1.8085858755512163e-05,0.038742572069168,0.1435961723327636,0.0,3.5136938095092773,-0.406536865234375,0.0,13.5,0.0,3.423929214477539,-0.18409233093261718,0.0,16.75,0.0,2.92360782623291,0.9889270782470703,0.0,21.5,0.0,2.8177499771118164,1.0404254913330078,0.0,13.75,,,,,,,,,,,,,,,,,,,,,,,,,
0.0,1.751474519551266e-05,3.1062979698181152,0.6753269255161285,-4.052537042298354e-05,0.0047040889039635,0.2025339752435684,-1.8085858755512163e-05,0.038742572069168,0.1435961723327636,0.0,3.5076141357421875,-0.48485736846923827,0.0,13.0,0.0,3.4339427947998047,-0.1712177276611328,0.0,16.0,0.0,2.8284788131713867,1.0196830749511718,0.0,13.75,0.0,2.923250198364258,0.9581710815429687,0.0,22.0,,,,,,,,,,,,,,,,,,,,,,,,,
0.0,1.751474519551266e-05,3.1062979698181152,0.6753269255161285,-4.052537042298354e-05,0.0047040889039635,0.2025339752435684,-1.8085858755512163e-05,0.038742572069168,0.1435961723327636,0.0,3.4693479537963867,-0.6765459060668946,0.0,12.5,0.0,2.9093027114868164,0.9950067520141601,0.0,22.0,0.0,2.8095245361328125,1.0651018142700195,0.0,14.25,,,,,,,,,,,,,,,,,,,,,,,,,,,,,,
0.0,1.751474519551266e-05,3.1062979698181152,0.6753269255161285,-4.052537042298354e-05,0.0047040889039635,0.2025339752435684,-1.8085858755512163e-05,0.038742572069168,0.1435961723327636,0.0,2.908587455749512,1.0289813995361328,0.0,21.0,0.0,2.7916431427001958,1.1219646453857421,0.0,13.0,,,,,,,,,,,,,,,,,,,,,,,,,,,,,,,,,,,
0.0,1.751474519551266e-05,3.1062979698181152,0.6753269255161285,-4.052537042298354e-05,0.0047040889039635,0.2025339752435684,-1.8085858755512163e-05,0.038742572069168,0.1435961723327636,0.0,3.4857988357543945,-0.6289813995361329,0.0,14.25,0.0,3.4035444259643555,-0.5395744323730469,0.0,15.75,,,,,,,,,,,,,,,,,,,,,,,,,,,,,,,,,,,
0.0,1.751474519551266e-05,3.1062979698181152,0.6753269255161285,-4.052537042298354e-05,0.0047040889039635,0.2025339752435684,-1.8085858755512163e-05,0.038742572069168,0.1435961723327636,0.0,3.414630889892578,-0.5495880126953125,0.0,16.0,,,,,,,,,,,,,,,,,,,,,,,,,,,,,,,,,,,,,,,,
0.0,1.751474519551266e-05,3.1062979698181152,0.6753269255161285,-4.052537042298354e-05,0.0047040889039635,0.2025339752435684,-1.8085858755512163e-05,0.038742572069168,0.1435961723327636,0.0,3.482937812805176,-0.6654594421386719,0.0,14.25,0.0,3.4035444259643555,-0.520977783203125,0.0,16.25,,,,,,,,,,,,,,,,,,,,,,,,,,,,,,,,,,,
0.0,1.751474519551266e-05,3.1062979698181152,0.6753269255161285,-4.052537042298354e-05,0.0047040889039635,0.2025339752435684,-1.8085858755512163e-05,0.038742572069168,0.1435961723327636,0.0,3.482937812805176,-0.6543729782104493,0.0,13.75,0.0,3.409266471862793,-0.4834268569946289,0.0,16.25,,,,,,,,,,,,,,,,,,,,,,,,,,,,,,,,,,,
0.0,1.6332793165929615e-05,3.10169529914856,0.6890270829200744,-4.138172153034248e-05,0.0079372311010956,0.2231522351503372,-1.840804179664701e-05,0.0509458743035793,0.159857764840126,0.0,2.947926521301269,0.8580352783203125,0.1917510479688644,12.0,0.0,2.99227237701416,0.865903091430664,0.1917510479688644,14.25,0.0,3.486514091491699,-0.666532325744629,0.0,13.0,0.0,3.396749496459961,-0.47734718322753905,0.0,15.75,,,,,,,,,,,,,,,,,,,,,,,,,
0.0,1.5679908756283112e-05,3.0933213233947754,0.7034644603729248,-4.202531999908388e-05,-0.0081281615421175,0.2401722371578216,-1.871816675702576e-05,0.0327944085001945,0.1692888438701629,0.0,2.9178857803344727,0.9503032684326171,-0.1917510479688644,13.0,0.0,2.969026565551758,0.9445812225341796,-0.1917510479688644,14.75,0.0,3.050565719604492,0.7089044570922851,0.0,21.75,0.0,2.950429916381836,0.8988048553466796,0.0,19.75,,,,,,,,,,,,,,,,,,,,,,,,,
0.0,1.5679908756283112e-05,3.0933213233947754,0.7034644603729248,-4.202531999908388e-05,-0.0081281615421175,0.2401722371578216,-1.871816675702576e-05,0.0327944085001945,0.1692888438701629,0.0,3.506183624267578,-0.6200407028198243,0.0,12.75,0.0,3.392457962036133,-0.48807601928710936,0.0,15.25,,,,,,,,,,,,,,,,,,,,,,,,,,,,,,,,,,,
0.0,1.5679908756283112e-05,3.0933213233947754,0.7034644603729248,-4.202531999908388e-05,-0.0081281615421175,0.2401722371578216,-1.871816675702576e-05,0.0327944085001945,0.1692888438701629,0.0,3.389596939086914,-0.4498098373413086,0.0,14.0,,,,,,,,,,,,,,,,,,,,,,,,,,,,,,,,,,,,,,,,
0.0,1.5679908756283112e-05,3.0933213233947754,0.7034644603729248,-4.202531999908388e-05,-0.0081281615421175,0.2401722371578216,-1.871816675702576e-05,0.0327944085001945,0.1692888438701629,,,,,,,,,,,,,,,,,,,,,,,,,,,,,,,,,,,,,,,,,,,,,
0.0,1.5679908756283112e-05,3.0933213233947754,0.7034644603729248,-4.202531999908388e-05,-0.0081281615421175,0.2401722371578216,-1.871816675702576e-05,0.0327944085001945,0.1692888438701629,0.0,3.413558006286621,-0.36934356689453124,0.0,12.75,,,,,,,,,,,,,,,,,,,,,,,,,,,,,,,,,,,,,,,,
0.0,1.5679908756283112e-05,3.0933213233947754,0.7034644603729248,-4.202531999908388e-05,-0.0081281615421175,0.2401722371578216,-1.871816675702576e-05,0.0327944085001945,0.1692888438701629,,,,,,,,,,,,,,,,,,,,,,,,,,,,,,,,,,,,,,,,,,,,,
0.0,1.5679908756283112e-05,3.0933213233947754,0.7034644603729248,-4.202531999908388e-05,-0.0081281615421175,0.2401722371578216,-1.871816675702576e-05,0.0327944085001945,0.1692888438701629,,,,,,,,,,,,,,,,,,,,,,,,,,,,,,,,,,,,,,,,,,,,,
0.0,1.5679908756283112e-05,3.0933213233947754,0.7034644603729248,-4.202531999908388e-05,-0.0081281615421175,0.2401722371578216,-1.871816675702576e-05,0.0327944085001945,0.1692888438701629,,,,,,,,,,,,,,,,,,,,,,,,,,,,,,,,,,,,,,,,,,,,,
0.0,1.5679908756283112e-05,3.0933213233947754,0.7034644603729248,-4.202531999908388e-05,-0.0081281615421175,0.2401722371578216,-1.871816675702576e-05,0.0327944085001945,0.1692888438701629,0.0,3.4586191177368164,-0.6765459060668946,0.0,12.25,0.0,3.3910274505615234,-0.4930828094482422,0.0,14.25,,,,,,,,,,,,,,,,,,,,,,,,,,,,,,,,,,,
0.0,1.5679908756283112e-05,3.0933213233947754,0.7034644603729248,-4.202531999908388e-05,-0.0081281615421175,0.2401722371578216,-1.871816675702576e-05,0.0327944085001945,0.1692888438701629,0.0,3.428220748901367,-0.7677410125732422,0.0,12.25,0.0,3.3777952194213867,-0.4591081619262695,0.0,14.5,0.0,3.188610076904297,0.4803802490234375,0.0,17.5,,,,,,,,,,,,,,,,,,,,,,,,,,,,,,
0.0,1.5679908756283112e-05,3.0933213233947754,0.7034644603729248,-4.202531999908388e-05,-0.0081281615421175,0.2401722371578216,-1.871816675702576e-05,0.0327944085001945,0.1692888438701629,0.0,3.3767223358154297,-0.42763690948486327,0.0,14.25,0.0,3.186464309692383,0.3909732818603515,0.0,16.5,,,,,,,,,,,,,,,,,,,,,,,,,,,,,,,,,,,
0.0,1.5679908756283112e-05,3.0933213233947754,0.7034644603729248,-4.202531999908388e-05,-0.0081281615421175,0.2401722371578216,-1.871816675702576e-05,0.0327944085001945,0.1692888438701629,0.0,3.346681594848633,-0.5131099700927735,0.0,14.0,0.0,3.1796693801879883,0.3863241195678711,0.0,17.25,0.0,3.0319690704345703,0.7003213882446289,0.0,21.25,0.0,2.9196739196777344,0.923123550415039,0.0,20.75,0.0,2.805948257446289,1.0407831192016601,0.0,14.25,,,,,,,,,,,,,,,,,,,,
0.0,1.5400048141600564e-05,3.088534355163574,0.7248340368270874,-4.232260107528418e-05,-0.017743207514286,0.2674558758735657,-1.8866991013055667e-05,0.0216655936092138,0.1866620779037475,0.0,2.821683883666992,1.447406005859375,-0.1917510479688644,12.25,0.0,3.357052803039551,-0.506315040588379,0.0,14.75,0.0,3.1728744506835938,0.4850294113159179,0.0,17.0,0.0,3.0090808868408203,0.8279945373535156,0.0,22.0,0.0,2.935051918029785,0.9055997848510742,0.0,21.25,,,,,,,,,,,,,,,,,,,,
0.0,1.437221908417996e-05,3.085953712463379,0.7314859747886657,-4.334184268373065e-05,-0.0263974778354167,0.2740488052368164,-1.9356732082087547e-05,0.0092402193695306,0.1890665739774704,0.0,3.0552148818969727,0.7185604095458984,0.1917510479688644,13.5,0.0,3.0673742294311523,0.807609748840332,-0.1917510479688644,19.0,0.0,3.06558609008789,0.9170438766479492,-0.1917510479688644,15.75,0.0,3.4003257751464844,-0.46769123077392577,0.0,17.0,0.0,3.504037857055664,-0.5567405700683594,0.0,15.5,0.0,3.204345703125,0.3409053802490234,0.0,17.25,0.0,3.000497817993164,0.8186962127685546,0.0,21.75,0.0,2.8148889541625977,1.0221864700317382,0.0,15.25,0.0,2.8982162475585938,0.9778406143188476,0.0,22.0
0.0,1.3280146049510222e-05,3.0850577354431152,0.7311617851257324,-4.425455335876904e-05,-0.0240991115570068,0.2747997641563415,-1.9748018530663103e-05,0.0146907921880483,0.1906568855047226,0.0,3.1964778900146484,0.19392032623291022,0.1917510479688644,14.25,0.0,3.211855888366699,0.4331733703613281,0.1917510479688644,14.75,0.0,2.606034278869629,1.4527704238891601,-0.1917510479688644,13.75,0.0,3.4818649291992188,-0.600013542175293,0.0,16.0,0.0,3.392457962036133,-0.4802082061767578,0.0,18.25,0.0,2.799510955810547,1.0658170700073242,0.0,15.25,,,,,,,,,,,,,,,
0.0,1.2318841072556095e-05,3.084257125854492,0.7226991772651672,-4.50346342404373e-05,-0.0210433006286621,0.2646567225456238,-2.007511466217693e-05,0.0213718842715024,0.1848322749137878,0.0,3.145694732666016,0.453915786743164,0.1917510479688644,13.25,0.0,3.069162368774414,0.546541404724121,0.1917510479688644,17.5,0.0,2.9604434967041016,0.8183385848999023,-0.1917510479688644,15.5,0.0,2.842068672180176,0.9939338684082031,0.0,15.75,,,,,,,,,,,,,,,,,,,,,,,,,
0.0,1.2139390491938684e-05,3.0782570838928223,0.7327715277671814,-4.515359250945039e-05,-0.0287823714315891,0.2773486077785492,-2.011543074331712e-05,0.0152808092534542,0.1927961409091949,0.0,2.7365684509277344,1.163449478149414,-0.1917510479688644,14.25,0.0,2.846002578735352,0.9674694061279296,0.0,16.5,,,,,,,,,,,,,,,,,,,,,,,,,,,,,,,,,,,
0.0,1.2139390491938684e-05,3.0782570838928223,0.7327715277671814,-4.515359250945039e-05,-0.0287823714315891,0.2773486077785492,-2.011543074331712e-05,0.0152808092534542,0.1927961409091949,,,,,,,,,,,,,,,,,,,,,,,,,,,,,,,,,,,,,,,,,,,,,
0.0,1.2139390491938684e-05,3.0782570838928223,0.7327715277671814,-4.515359250945039e-05,-0.0287823714315891,0.2773486077785492,-2.011543074331712e-05,0.0152808092534542,0.1927961409091949,,,,,,,,,,,,,,,,,,,,,,,,,,,,,,,,,,,,,,,,,,,,,
0.0,1.2139390491938684e-05,3.0782570838928223,0.7327715277671814,-4.515359250945039e-05,-0.0287823714315891,0.2773486077785492,-2.011543074331712e-05,0.0152808092534542,0.1927961409091949,,,,,,,,,,,,,,,,,,,,,,,,,,,,,,,,,,,,,,,,,,,,,
0.0,1.2139390491938684e-05,3.0782570838928223,0.7327715277671814,-4.515359250945039e-05,-0.0287823714315891,0.2773486077785492,-2.011543074331712e-05,0.0152808092534542,0.1927961409091949,0.0,3.396034240722656,-0.5034540176391602,0.0,20.0,0.0,3.490447998046875,-0.553164291381836,0.0,17.5,,,,,,,,,,,,,,,,,,,,,,,,,,,,,,,,,,,
0.0,1.1829289178422188e-05,3.0775179862976074,0.738132905960083,-4.538144639809616e-05,-0.027005024254322,0.285664826631546,-2.0203620806569237e-05,0.0195855181664228,0.1994897127151489,0.0,3.005862236022949,0.9520914077758789,0.1917510479688644,14.75,0.0,3.05020809173584,0.6849433898925781,0.0,26.5,0.0,3.153204917907715,0.5265142440795898,0.0,21.5,,,,,,,,,,,,,,,,,,,,,,,,,,,,,,
0.0,1.1829289178422188e-05,3.0775179862976074,0.738132905960083,-4.538144639809616e-05,-0.027005024254322,0.285664826631546,-2.0203620806569237e-05,0.0195855181664228,0.1994897127151489,0.0,3.04555892944336,0.681724739074707,0.0,26.5,0.0,3.1403303146362305,0.6237890243530273,0.0,21.25,0.0,2.9861927032470703,0.7954504013061523,0.0,24.25,,,,,,,,,,,,,,,,,,,,,,,,,,,,,,
0.0,1.1829289178422188e-05,3.0775179862976074,0.738132905960083,-4.538144639809616e-05,-0.027005024254322,0.285664826631546,-2.0203620806569237e-05,0.0195855181664228,0.1994897127151489,0.0,3.4314393997192383,-0.407609748840332,0.0,19.75,0.0,3.5047531127929688,-0.48879127502441405,0.0,17.0,0.0,3.1675100326538086,0.5168582916259765,0.0,20.75,0.0,3.023386001586914,0.7471706390380859,0.0,26.0,0.0,2.94649600982666,0.8809234619140625,0.0,24.25,,,,,,,,,,,,,,,,,,,,
0.0,1.15298644232098e-05,3.07775354385376,0.7412015318870544,-4.561802779790014e-05,-0.0245993938297033,0.290822297334671,-2.0301349650253545e-05,0.0237202644348144,0.2039380371570587,0.0,3.0684471130371094,0.8576776504516601,0.1917510479688644,13.0,0.0,3.424644470214844,-0.3854368209838867,0.0,19.0,0.0,3.4950971603393555,-0.5109642028808594,0.0,16.5,0.0,3.184676170349121,0.4667903900146484,0.0,21.0,0.0,2.962589263916016,0.8347894668579101,0.0,24.5,0.0,3.020167350769043,0.7604028701782226,0.0,26.0,,,,,,,,,,,,,,,
0.0,1.15298644232098e-05,3.07775354385376,0.7412015318870544,-4.561802779790014e-05,-0.0245993938297033,0.290822297334671,-2.0301349650253545e-05,0.0237202644348144,0.2039380371570587,0.0,3.4307241439819336,-0.3879402160644531,0.0,19.25,0.0,3.496527671813965,-0.50953369140625,0.0,16.75,0.0,3.166079521179199,0.5175735473632812,0.0,20.25,0.0,2.966165542602539,0.8251335144042968,0.0,24.25,0.0,3.016948699951172,0.7596876144409179,0.0,25.75,0.0,2.8477907180786133,0.9628202438354492,0.0,15.75,,,,,,,,,,,,,,,
0.0,1.15298644232098e-05,3.07775354385376,0.7412015318870544,-4.561802779790014e-05,-0.0245993938297033,0.290822297334671,-2.0301349650253545e-05,0.0237202644348144,0.2039380371570587,0.0,3.4421682357788086,-0.46339969635009765,0.0,19.0,0.0,3.492593765258789,-0.5363557815551758,0.0,16.5,0.0,2.967953681945801,0.8276369094848632,0.0,24.5,0.0,3.0069351196289062,0.7840063095092773,0.0,26.0,0.0,3.094911575317383,0.8122589111328125,0.0,20.0,0.0,2.855658531188965,0.9431507110595703,0.0,15.5,,,,,,,,,,,,,,,
0.0,1.15298644232098e-05,3.07775354385376,0.7412015318870544,-4.561802779790014e-05,-0.0245993938297033,0.290822297334671,-2.0301349650253545e-05,0.0237202644348144,0.2039380371570587,0.0,3.39961051940918,-0.4498098373413086,0.0,17.25,0.0,3.497242927551269,-0.5545948028564454,0.0,14.75,0.0,2.981901168823242,0.8101131439208984,0.0,25.5,0.0,3.0205249786376958,0.762906265258789,0.0,27.5,0.0,3.0924081802368164,0.7307197570800781,0.0,21.75,0.0,2.875685691833496,0.8923675537109375,0.0,16.0,,,,,,,,,,,,,,,
0.0,1.15298644232098e-05,3.07775354385376,0.7412015318870544,-4.561802779790014e-05,-0.0245993938297033,0.290822297334671,-2.0301349650253545e-05,0.0237202644348144,0.2039380371570587,0.0,3.4189224243164062,-0.4269216537475586,0.0,18.25,0.0,3.498673439025879,-0.5452964782714844,0.0,15.5,0.0,3.134608268737793,0.6642009735107421,0.0,20.75,0.0,2.982616424560547,0.8036758422851562,0.0,24.25,0.0,3.021240234375,0.7711317062377929,0.0,26.25,0.0,2.874612808227539,0.8912946701049804,0.0,14.5,,,,,,,,,,,,,,,
0.0,1.15298644232098e-05,3.07775354385376,0.7412015318870544,-4.561802779790014e-05,-0.0245993938297033,0.290822297334671,-2.0301349650253545e-05,0.0237202644348144,0.2039380371570587,0.0,3.5022497177124023,-0.6025169372558594,0.0,15.5,0.0,3.413915634155273,-0.3575418472290039,0.0,17.25,0.0,3.146052360534668,0.6041194915771484,0.0,21.0,0.0,3.014087677001953,0.7221366882324218,0.0,22.5,0.0,3.051638603210449,0.7164146423339843,0.0,25.25,0.0,2.8524398803710938,0.9764101028442382,0.0,12.0,,,,,,,,,,,,,,,
0.0,1.15298644232098e-05,3.07775354385376,0.7412015318870544,-4.561802779790014e-05,-0.0245993938297033,0.290822297334671,-2.0301349650253545e-05,0.0237202644348144,0.2039380371570587,0.0,3.4096240997314453,-0.38400630950927733,0.0,17.75,0.0,3.505468368530273,-0.5574558258056641,0.0,15.25,0.0,3.14176082611084,0.5937482833862304,0.0,21.25,,,,,,,,,,,,,,,,,,,,,,,,,,,,,,
0.0,1.15298644232098e-05,3.07775354385376,0.7412015318870544,-4.561802779790014e-05,-0.0245993938297033,0.290822297334671,-2.0301349650253545e-05,0.0237202644348144,0.2039380371570587,0.0,3.527998924255371,-0.452313232421875,0.0,13.5,0.0,3.390669822692871,-0.32642822265625,0.0,16.25,0.0,3.137826919555664,0.592317771911621,0.0,20.5,0.0,3.0101537704467773,0.706758689880371,0.0,22.75,0.0,3.038763999938965,0.7167722702026367,0.0,25.25,,,,,,,,,,,,,,,,,,,,
0.0,1.15298644232098e-05,3.07775354385376,0.7412015318870544,-4.561802779790014e-05,-0.0245993938297033,0.290822297334671,-2.0301349650253545e-05,0.0237202644348144,0.2039380371570587,0.0,3.4106969833374023,-0.4351470947265625,0.0,17.0,0.0,3.497958183288574,-0.576052474975586,0.0,14.75,0.0,3.1442642211914062,0.6051923751831054,0.0,18.75,0.0,3.0069351196289062,0.7049705505371093,0.0,21.25,0.0,3.0384063720703125,0.7074739456176757,0.0,23.75,,,,,,,,,,,,,,,,,,,,
0.0,1.15298644232098e-05,3.07775354385376,0.7412015318870544,-4.561802779790014e-05,-0.0245993938297033,0.290822297334671,-2.0301349650253545e-05,0.0237202644348144,0.2039380371570587,0.0,3.389596939086914,-0.46840648651123046,0.0,17.75,0.0,3.5108327865600586,-0.5742643356323243,0.0,14.5,0.0,3.173232078552246,0.4496242523193359,0.0,19.75,0.0,3.016233444213867,0.6395246505737304,0.0,22.0,0.0,3.0530691146850586,0.6287958145141601,0.0,24.0,,,,,,,,,,,,,,,,,,,,
0.0,1.15298644232098e-05,3.07775354385376,0.7412015318870544,-4.561802779790014e-05,-0.0245993938297033,0.290822297334671,-2.0301349650253545e-05,0.0237202644348144,0.2039380371570587,0.0,3.457903861999512,-0.7434223175048829,0.0,14.0,0.0,3.378152847290039,-0.4244182586669922,0.0,17.75,0.0,3.18288803100586,0.38310546875,0.0,19.5,0.0,3.052353858947754,0.6456043243408203,0.0,23.75,0.0,3.008723258972168,0.6888772964477539,0.0,21.5,,,,,,,,,,,,,,,,,,,,
0.0,1.124436403188156e-05,3.07794189453125,0.7440787076950073,-4.584271664498374e-05,-0.0222999230027198,0.2957096397876739,-2.0393970771692693e-05,0.0277237240225076,0.2081875950098037,0.0,3.0670166015625,0.8551742553710937,0.1917510479688644,12.25,0.0,3.198981285095215,0.3949071884155273,0.0,20.0,0.0,3.0241012573242188,0.6270076751708984,0.0,20.5,0.0,3.061652183532715,0.6695653915405273,0.0,23.25,,,,,,,,,,,,,,,,,,,,,,,,,
0.0,1.124436403188156e-05,3.07794189453125,0.7440787076950073,-4.584271664498374e-05,-0.0222999230027198,0.2957096397876739,-2.0393970771692693e-05,0.0277237240225076,0.2081875950098037,0.0,3.1954050064086914,0.3863241195678711,0.0,20.0,0.0,3.018379211425781,0.6452466964721679,0.0,21.0,0.0,3.060579299926758,0.6570484161376953,0.0,23.5,,,,,,,,,,,,,,,,,,,,,,,,,,,,,,
0.0,1.124436403188156e-05,3.07794189453125,0.7440787076950073,-4.584271664498374e-05,-0.0222999230027198,0.2957096397876739,-2.0393970771692693e-05,0.0277237240225076,0.2081875950098037,,,,,,,,,,,,,,,,,,,,,,,,,,,,,,,,,,,,,,,,,,,,,
0.0,1.124436403188156e-05,3.07794189453125,0.7440787076950073,-4.584271664498374e-05,-0.0222999230027198,0.2957096397876739,-2.0393970771692693e-05,0.0277237240225076,0.2081875950098037,0.0,3.029823303222656,0.5536939620971679,0.0,19.0,,,,,,,,,,,,,,,,,,,,,,,,,,,,,,,,,,,,,,,,
0.0,1.124436403188156e-05,3.07794189453125,0.7440787076950073,-4.584271664498374e-05,-0.0222999230027198,0.2957096397876739,-2.0393970771692693e-05,0.0277237240225076,0.2081875950098037,0.0,3.4199953079223637,-0.5116794586181641,0.0,19.75,,,,,,,,,,,,,,,,,,,,,,,,,,,,,,,,,,,,,,,,
0.0,1.124436403188156e-05,3.07794189453125,0.7440787076950073,-4.584271664498374e-05,-0.0222999230027198,0.2957096397876739,-2.0393970771692693e-05,0.0277237240225076,0.2081875950098037,0.0,3.4253597259521484,-0.5034540176391602,0.0,20.0,,,,,,,,,,,,,,,,,,,,,,,,,,,,,,,,,,,,,,,,
0.0,1.124436403188156e-05,3.07794189453125,0.7440787076950073,-4.584271664498374e-05,-0.0222999230027198,0.2957096397876739,-2.0393970771692693e-05,0.0277237240225076,0.2081875950098037,,,,,,,,,,,,,,,,,,,,,,,,,,,,,,,,,,,,,,,,,,,,,
0.0,1.124436403188156e-05,3.07794189453125,0.7440787076950073,-4.584271664498374e-05,-0.0222999230027198,0.2957096397876739,-2.0393970771692693e-05,0.0277237240225076,0.2081875950098037,,,,,,,,,,,,,,,,,,,,,,,,,,,,,,,,,,,,,,,,,,,,,
0.0,1.124436403188156e-05,3.07794189453125,0.7440787076950073,-4.584271664498374e-05,-0.0222999230027198,0.2957096397876739,-2.0393970771692693e-05,0.0277237240225076,0.2081875950098037,0.0,3.457188606262207,-0.43729286193847655,0.0,19.5,0.0,3.5104751586914062,-0.4948709487915039,0.0,18.0,0.0,3.0112266540527344,0.592317771911621,0.0,19.25,0.0,3.208637237548828,0.5565549850463867,0.0,18.0,,,,,,,,,,,,,,,,,,,,,,,,,
0.0,1.124436403188156e-05,3.07794189453125,0.7440787076950073,-4.584271664498374e-05,-0.0222999230027198,0.2957096397876739,-2.0393970771692693e-05,0.0277237240225076,0.2081875950098037,0.0,3.462553024291992,-0.4784200668334961,0.0,20.75,0.0,3.5136938095092773,-0.4873607635498047,0.0,19.5,0.0,3.0781030654907227,0.5944635391235351,0.0,22.5,0.0,3.189682960510254,0.6180669784545898,0.0,18.5,,,,,,,,,,,,,,,,,,,,,,,,,
0.0,1.124436403188156e-05,3.07794189453125,0.7440787076950073,-4.584271664498374e-05,-0.0222999230027198,0.2957096397876739,-2.0393970771692693e-05,0.0277237240225076,0.2081875950098037,0.0,3.438591957092285,-0.42978267669677733,0.0,19.75,0.0,3.530144691467285,-0.42406063079833983,0.0,18.0,0.0,3.2018423080444336,0.4839565277099609,0.0,19.5,,,,,,,,,,,,,,,,,,,,,,,,,,,,,,
0.0,1.124436403188156e-05,3.07794189453125,0.7440787076950073,-4.584271664498374e-05,-0.0222999230027198,0.2957096397876739,-2.0393970771692693e-05,0.0277237240225076,0.2081875950098037,0.0,3.425002098083496,-0.541720199584961,0.0,18.5,0.0,3.5458803176879883,-0.41511993408203124,0.0,17.75,0.0,3.15713882446289,0.626650047302246,0.0,19.25,,,,,,,,,,,,,,,,,,,,,,,,,,,,,,
0.0,1.124436403188156e-05,3.07794189453125,0.7440787076950073,-4.584271664498374e-05,-0.0222999230027198,0.2957096397876739,-2.0393970771692693e-05,0.0277237240225076,0.2081875950098037,0.0,3.424644470214844,-0.5624626159667969,0.0,17.75,0.0,3.530502319335937,-0.49630146026611327,0.0,16.75,,,,,,,,,,,,,,,,,,,,,,,,,,,,,,,,,,,
0.0,1.0711677532526664e-05,3.0750272274017334,0.7513710379600524,-4.618820094037801e-05,-0.0195549130439758,0.3079167306423187,-2.051152114290744e-05,0.0367803275585174,0.2187042981386184,0.0,2.948641777038574,0.8755590438842773,0.1917510479688644,13.0,0.0,2.979755401611328,0.9088184356689453,0.1917510479688644,14.25,0.0,3.438949584960937,-0.3983114242553711,0.0,16.5,,,,,,,,,,,,,,,,,,,,,,,,,,,,,,
0.0,1.0711677532526664e-05,3.0750272274017334,0.7513710379600524,-4.618820094037801e-05,-0.0195549130439758,0.3079167306423187,-2.051152114290744e-05,0.0367803275585174,0.2187042981386184,0.0,3.4024715423583984,-0.6819103240966797,0.0,16.5,0.0,3.545522689819336,-0.542793083190918,0.0,16.75,,,,,,,,,,,,,,,,,,,,,,,,,,,,,,,,,,,
0.0,1.0711677532526664e-05,3.0750272274017334,0.7513710379600524,-4.618820094037801e-05,-0.0195549130439758,0.3079167306423187,-2.051152114290744e-05,0.0367803275585174,0.2187042981386184,0.0,3.412485122680664,-0.5370710372924805,0.0,16.5,0.0,3.536581993103028,-0.5381439208984375,0.0,15.75,0.0,3.079533576965332,0.7890130996704101,0.0,20.75,,,,,,,,,,,,,,,,,,,,,,,,,,,,,,
0.0,1.0711677532526664e-05,3.0750272274017334,0.7513710379600524,-4.618820094037801e-05,-0.0195549130439758,0.3079167306423187,-2.051152114290744e-05,0.0367803275585174,0.2187042981386184,0.0,3.4210681915283203,-0.4873607635498047,0.0,16.0,0.0,3.5390853881835938,-0.5245540618896485,0.0,15.5,0.0,2.9822587966918945,0.7979537963867187,0.0,25.75,0.0,3.009796142578125,0.7736351013183593,0.0,27.25,0.0,3.086686134338379,0.7210638046264648,0.0,20.75,,,,,,,,,,,,,,,,,,,,
0.0,1.0711677532526664e-05,3.0750272274017334,0.7513710379600524,-4.618820094037801e-05,-0.0195549130439758,0.3079167306423187,-2.051152114290744e-05,0.0367803275585174,0.2187042981386184,0.0,3.41176986694336,-0.4165504455566406,0.0,15.75,0.0,3.527998924255371,-0.5098913192749024,0.0,14.0,0.0,3.1006336212158203,0.6938840866088867,0.0,21.25,0.0,2.9861927032470703,0.785794448852539,0.0,26.0,0.0,3.0165910720825195,0.7475282669067382,0.0,27.5,,,,,,,,,,,,,,,,,,,,
0.0,1.0711677532526664e-05,3.0750272274017334,0.7513710379600524,-4.618820094037801e-05,-0.0195549130439758,0.3079167306423187,-2.051152114290744e-05,0.0367803275585174,0.2187042981386184,0.0,3.4182071685791016,-0.4673336029052734,0.0,15.75,0.0,3.516554832458496,-0.5216930389404297,0.0,14.25,0.0,3.013014793395996,0.8061792373657226,0.0,27.5,0.0,3.058433532714844,0.8716251373291015,0.0,21.5,,,,,,,,,,,,,,,,,,,,,,,,,
0.0,1.0711677532526664e-05,3.0750272274017334,0.7513710379600524,-4.618820094037801e-05,-0.0195549130439758,0.3079167306423187,-2.051152114290744e-05,0.0367803275585174,0.2187042981386184,0.0,3.5043954849243164,-0.645789909362793,0.0,15.5,0.0,3.4332275390625,-0.4376504898071289,0.0,15.0,0.0,2.9761791229248047,0.8347894668579101,0.0,24.75,,,,,,,,,,,,,,,,,,,,,,,,,,,,,,
0.0,1.0711677532526664e-05,3.0750272274017334,0.7513710379600524,-4.618820094037801e-05,-0.0195549130439758,0.3079167306423187,-2.051152114290744e-05,0.0367803275585174,0.2187042981386184,0.0,3.5065412521362305,-0.5985830307006836,0.0,15.0,0.0,3.4346580505371094,-0.4015300750732422,0.0,15.5,0.0,3.504037857055664,-0.597867774963379,0.0,14.25,0.0,2.9675960540771484,0.8444454193115234,0.0,24.75,0.0,3.003716468811035,0.8004571914672851,0.0,26.0,0.0,3.0766725540161133,0.8262063980102539,0.0,20.0,0.0,2.8717517852783203,0.920977783203125,0.0,15.25,,,,,,,,,,
0.0,1.0711677532526664e-05,3.0750272274017334,0.7513710379600524,-4.618820094037801e-05,-0.0195549130439758,0.3079167306423187,-2.051152114290744e-05,0.0367803275585174,0.2187042981386184,0.0,3.4618377685546875,-0.4923675537109375,0.0,15.5,0.0,3.5358667373657227,-0.44623355865478515,0.0,15.5,0.0,2.986907958984375,0.7950927734375,0.0,22.5,0.0,3.0226707458496094,0.7496740341186523,0.0,25.0,0.0,2.866387367248535,0.9102489471435546,0.0,13.5,0.0,3.047347068786621,0.9270574569702148,0.0,19.25,,,,,,,,,,,,,,,
0.0,1.0711677532526664e-05,3.0750272274017334,0.7513710379600524,-4.618820094037801e-05,-0.0195549130439758,0.3079167306423187,-2.051152114290744e-05,0.0367803275585174,0.2187042981386184,0.0,3.483295440673828,-0.5592439651489258,0.0,19.5,0.0,3.545522689819336,-0.46339969635009765,0.0,20.0,0.0,3.605961799621582,-0.5281303405761719,0.0,12.5,0.0,3.0008554458618164,0.7886554718017578,0.0,22.75,0.0,3.0373334884643555,0.7718469619750976,0.0,25.75,0.0,2.882838249206543,0.8691217422485351,0.0,12.25,0.0,3.0498504638671875,0.9756948471069335,0.0,21.25,,,,,,,,,,
0.0,1.0711677532526664e-05,3.0750272274017334,0.7513710379600524,-4.618820094037801e-05,-0.0195549130439758,0.3079167306423187,-2.051152114290744e-05,0.0367803275585174,0.2187042981386184,0.0,3.47757339477539,-0.6035898208618165,0.0,18.25,0.0,3.5408735275268555,-0.532421875,0.0,18.5,0.0,3.613471984863281,-0.5424354553222657,0.0,12.75,0.0,2.8874874114990234,0.8448030471801757,0.0,12.25,0.0,2.995133399963379,0.7897283554077148,0.0,22.5,0.0,3.030538558959961,0.7747079849243164,0.0,25.0,0.0,3.05020809173584,0.9706880569458007,0.0,20.5,,,,,,,,,,
0.0,1.0711677532526664e-05,3.0750272274017334,0.7513710379600524,-4.618820094037801e-05,-0.0195549130439758,0.3079167306423187,-2.051152114290744e-05,0.0367803275585174,0.2187042981386184,0.0,3.4793615341186523,-0.5935762405395508,0.0,21.0,0.0,3.5201311111450195,-0.5263422012329102,0.0,20.5,0.0,3.5963058471679688,-0.5148981094360352,0.0,13.25,0.0,3.003358840942383,0.7614757537841796,0.0,22.0,0.0,3.036618232727051,0.7106925964355468,0.0,24.75,0.0,3.065943717956543,0.958528709411621,0.0,19.75,,,,,,,,,,,,,,,
0.0,1.0448526154505087e-05,3.0755398273468018,0.747702670097351,-4.638271639123559e-05,-0.0163378790020942,0.3041565418243408,-2.058767677226569e-05,0.0420109778642654,0.2171593606472015,0.0,3.07917594909668,0.5451108932495117,0.1917510479688644,12.75,0.0,3.480076789855957,-0.5925033569335938,0.0,20.5,0.0,3.4672021865844727,-0.589642333984375,0.0,20.25,0.0,3.519415855407715,-0.5377862930297852,0.0,19.75,0.0,3.595590591430664,-0.5449388504028321,0.0,12.5,0.0,3.02731990814209,0.6616975784301757,0.0,22.75,0.0,3.045916557312012,0.693168830871582,0.0,26.25,0.0,3.0688047409057617,0.8995201110839843,0.0,21.0,,,,,
0.0,1.0448526154505087e-05,3.0755398273468018,0.747702670097351,-4.638271639123559e-05,-0.0163378790020942,0.3041565418243408,-2.058767677226569e-05,0.0420109778642654,0.2171593606472015,0.0,3.531932830810547,-0.47806243896484374,0.0,20.75,0.0,3.6013126373291016,-0.4730556488037109,0.0,13.0,,,,,,,,,,,,,,,,,,,,,,,,,,,,,,,,,,,
0.0,1.0448526154505087e-05,3.0755398273468018,0.747702670097351,-4.638271639123559e-05,-0.0163378790020942,0.3041565418243408,-2.058767677226569e-05,0.0420109778642654,0.2171593606472015,0.0,3.533363342285156,-0.48235397338867186,0.0,21.0,0.0,3.608822822570801,-0.4362199783325195,0.0,13.25,,,,,,,,,,,,,,,,,,,,,,,,,,,,,,,,,,,
0.0,1.0448526154505087e-05,3.0755398273468018,0.747702670097351,-4.638271639123559e-05,-0.0163378790020942,0.3041565418243408,-2.058767677226569e-05,0.0420109778642654,0.2171593606472015,0.0,3.5376548767089844,-0.4616115570068359,0.0,21.0,0.0,3.608465194702149,-0.43335895538330077,0.0,13.25,,,,,,,,,,,,,,,,,,,,,,,,,,,,,,,,,,,
0.0,1.0448526154505087e-05,3.0755398273468018,0.747702670097351,-4.638271639123559e-05,-0.0163378790020942,0.3041565418243408,-2.058767677226569e-05,0.0420109778642654,0.2171593606472015,,,,,,,,,,,,,,,,,,,,,,,,,,,,,,,,,,,,,,,,,,,,,
0.0,1.0448526154505087e-05,3.0755398273468018,0.747702670097351,-4.638271639123559e-05,-0.0163378790020942,0.3041565418243408,-2.058767677226569e-05,0.0420109778642654,0.2171593606472015,,,,,,,,,,,,,,,,,,,,,,,,,,,,,,,,,,,,,,,,,,,,,
0.0,1.0448526154505087e-05,3.0755398273468018,0.747702670097351,-4.638271639123559e-05,-0.0163378790020942,0.3041565418243408,-2.058767677226569e-05,0.0420109778642654,0.2171593606472015,0.0,3.4235715866088867,-0.3307197570800781,0.0,18.25,,,,,,,,,,,,,,,,,,,,,,,,,,,,,,,,,,,,,,,,
0.0,1.0448526154505087e-05,3.0755398273468018,0.747702670097351,-4.638271639123559e-05,-0.0163378790020942,0.3041565418243408,-2.058767677226569e-05,0.0420109778642654,0.2171593606472015,,,,,,,,,,,,,,,,,,,,,,,,,,,,,,,,,,,,,,,,,,,,,
0.0,1.0448526154505087e-05,3.0755398273468018,0.747702670097351,-4.638271639123559e-05,-0.0163378790020942,0.3041565418243408,-2.058767677226569e-05,0.0420109778642654,0.2171593606472015,0.0,3.429651260375977,-0.38901309967041015,0.0,17.0,,,,,,,,,,,,,,,,,,,,,,,,,,,,,,,,,,,,,,,,
0.0,1.0448526154505087e-05,3.0755398273468018,0.747702670097351,-4.638271639123559e-05,-0.0163378790020942,0.3041565418243408,-2.058767677226569e-05,0.0420109778642654,0.2171593606472015,0.0,3.395318984985352,-0.3936622619628906,0.0,14.5,0.0,2.926826477050781,1.0153915405273437,0.0,18.5,,,,,,,,,,,,,,,,,,,,,,,,,,,,,,,,,,,
0.0,1.0448526154505087e-05,3.0755398273468018,0.747702670097351,-4.638271639123559e-05,-0.0163378790020942,0.3041565418243408,-2.058767677226569e-05,0.0420109778642654,0.2171593606472015,0.0,3.093481063842773,0.5054141998291015,0.0,23.75,0.0,3.013014793395996,0.6928112030029296,0.0,20.75,,,,,,,,,,,,,,,,,,,,,,,,,,,,,,,,,,,
0.0,1.0448526154505087e-05,3.0755398273468018,0.747702670097351,-4.638271639123559e-05,-0.0163378790020942,0.3041565418243408,-2.058767677226569e-05,0.0420109778642654,0.2171593606472015,0.0,3.540158271789551,-0.5503032684326172,0.0,14.0,0.0,3.1120777130126958,0.474658203125,0.0,23.5,0.0,3.167867660522461,0.499692153930664,0.0,21.0,0.0,3.014802932739258,0.7085468292236328,0.0,19.75,,,,,,,,,,,,,,,,,,,,,,,,,
0.0,1.0448526154505087e-05,3.0755398273468018,0.747702670097351,-4.638271639123559e-05,-0.0163378790020942,0.3041565418243408,-2.058767677226569e-05,0.0420109778642654,0.2171593606472015,0.0,3.371000289916992,-0.666532325744629,0.0,12.75,0.0,3.544449806213379,-0.6268356323242188,0.0,14.75,0.0,3.072738647460937,0.6316568374633789,0.0,24.5,0.0,3.1142234802246094,0.6388093948364257,0.0,20.75,0.0,3.004789352416992,0.7643367767333984,0.0,21.25,,,,,,,,,,,,,,,,,,,,
0.0,1.0448526154505087e-05,3.0755398273468018,0.747702670097351,-4.638271639123559e-05,-0.0163378790020942,0.3041565418243408,-2.058767677226569e-05,0.0420109778642654,0.2171593606472015,0.0,3.3849477767944336,-0.4644725799560547,0.0,14.0,0.0,3.5398006439208984,-0.5767677307128907,0.0,14.25,0.0,3.06558609008789,0.614133071899414,0.0,24.75,0.0,3.121018409729004,0.6180669784545898,0.0,20.25,0.0,3.0094385147094727,0.7403757095336914,0.0,21.75,,,,,,,,,,,,,,,,,,,,
0.0,1.0448526154505087e-05,3.0755398273468018,0.747702670097351,-4.638271639123559e-05,-0.0163378790020942,0.3041565418243408,-2.058767677226569e-05,0.0420109778642654,0.2171593606472015,0.0,3.4099817276000977,-0.44373016357421874,0.0,15.0,0.0,3.529787063598633,-0.5810592651367188,0.0,15.25,0.0,3.093838691711426,0.4231597900390625,0.0,23.0,0.0,3.166079521179199,0.47072429656982423,0.0,19.0,0.0,3.015875816345215,0.6552602767944335,0.0,19.75,,,,,,,,,,,,,,,,,,,,
0.0,1.0448526154505087e-05,3.0755398273468018,0.747702670097351,-4.638271639123559e-05,-0.0163378790020942,0.3041565418243408,-2.058767677226569e-05,0.0420109778642654,0.2171593606472015,0.0,3.520488739013672,-0.6643865585327149,0.0,14.75,0.0,3.382086753845215,-0.517759132385254,0.0,14.0,0.0,3.0984878540039062,0.4388954162597656,0.0,23.5,0.0,3.1592845916748047,0.46500225067138673,0.0,19.75,0.0,3.0155181884765625,0.6677772521972656,0.0,19.75,,,,,,,,,,,,,,,,,,,,
0.0,1.0448526154505087e-05,3.0755398273468018,0.747702670097351,-4.638271639123559e-05,-0.0163378790020942,0.3041565418243408,-2.058767677226569e-05,0.0420109778642654,0.2171593606472015,0.0,3.4149885177612305,-0.4705522537231445,0.0,17.0,0.0,3.5262107849121094,-0.48950653076171874,0.0,16.0,0.0,3.1675100326538086,0.48789043426513673,0.0,20.0,0.0,3.025174140930176,0.6298686981201171,0.0,21.0,0.0,3.0770301818847656,0.532951545715332,0.0,24.25,,,,,,,,,,,,,,,,,,,,
0.0,1.0448526154505087e-05,3.0755398273468018,0.747702670097351,-4.638271639123559e-05,-0.0163378790020942,0.3041565418243408,-2.058767677226569e-05,0.0420109778642654,0.2171593606472015,0.0,3.0280351638793945,0.6727840423583984,0.0,25.25,0.0,2.99835205078125,0.7207061767578125,0.0,23.25,0.0,3.104209899902344,0.7060434341430664,0.0,19.25,,,,,,,,,,,,,,,,,,,,,,,,,,,,,,
0.0,1.0448526154505087e-05,3.0755398273468018,0.747702670097351,-4.638271639123559e-05,-0.0163378790020942,0.3041565418243408,-2.058767677226569e-05,0.0420109778642654,0.2171593606472015,0.0,3.0895471572875977,0.7714893341064453,0.0,19.75,,,,,,,,,,,,,,,,,,,,,,,,,,,,,,,,,,,,,,,,
0.0,1.0448526154505087e-05,3.0755398273468018,0.747702670097351,-4.638271639123559e-05,-0.0163378790020942,0.3041565418243408,-2.058767677226569e-05,0.0420109778642654,0.2171593606472015,,,,,,,,,,,,,,,,,,,,,,,,,,,,,,,,,,,,,,,,,,,,,
0.0,1.0448526154505087e-05,3.0755398273468018,0.747702670097351,-4.638271639123559e-05,-0.0163378790020942,0.3041565418243408,-2.058767677226569e-05,0.0420109778642654,0.2171593606472015,,,,,,,,,,,,,,,,,,,,,,,,,,,,,,,,,,,,,,,,,,,,,
0.0,1.0448526154505087e-05,3.0755398273468018,0.747702670097351,-4.638271639123559e-05,-0.0163378790020942,0.3041565418243408,-2.058767677226569e-05,0.0420109778642654,0.2171593606472015,0.0,3.45003604888916,-0.4301403045654297,0.0,19.5,,,,,,,,,,,,,,,,,,,,,,,,,,,,,,,,,,,,,,,,
0.0,1.0448526154505087e-05,3.0755398273468018,0.747702670097351,-4.638271639123559e-05,-0.0163378790020942,0.3041565418243408,-2.058767677226569e-05,0.0420109778642654,0.2171593606472015,0.0,3.4357309341430664,-0.45624713897705077,0.0,20.5,0.0,3.52334976196289,-0.47484378814697265,0.0,20.0,0.0,3.596663475036621,-0.4955862045288086,0.0,12.5,0.0,2.90679931640625,0.8022453308105468,0.0,17.5,0.0,3.1006336212158203,0.7178451538085937,0.0,23.75,,,,,,,,,,,,,,,,,,,,
0.0,1.0448526154505087e-05,3.0755398273468018,0.747702670097351,-4.638271639123559e-05,-0.0163378790020942,0.3041565418243408,-2.058767677226569e-05,0.0420109778642654,0.2171593606472015,0.0,3.4085512161254883,-0.5045269012451172,0.0,20.0,0.0,3.4836530685424805,-0.5817745208740235,0.0,18.5,0.0,3.1145811080932617,0.6606246948242187,0.0,23.25,0.0,2.9053688049316406,0.8043910980224609,0.0,17.75,0.0,2.989053726196289,0.7550384521484375,0.0,27.75,0.0,3.0194520950317383,0.7178451538085937,0.0,29.5,,,,,,,,,,,,,,,
0.0,1.0448526154505087e-05,3.0755398273468018,0.747702670097351,-4.638271639123559e-05,-0.0163378790020942,0.3041565418243408,-2.058767677226569e-05,0.0420109778642654,0.2171593606472015,0.0,3.421783447265625,-0.40117244720458983,0.0,21.0,0.0,3.492593765258789,-0.498089599609375,0.0,18.5,0.0,3.129243850708008,0.6212856292724609,0.0,24.0,,,,,,,,,,,,,,,,,,,,,,,,,,,,,,
0.0,1.0448526154505087e-05,3.0755398273468018,0.747702670097351,-4.638271639123559e-05,-0.0163378790020942,0.3041565418243408,-2.058767677226569e-05,0.0420109778642654,0.2171593606472015,0.0,3.425717353820801,-0.453386116027832,0.0,21.75,0.0,3.504037857055664,-0.518832015991211,0.0,19.75,0.0,3.132462501525879,0.5969669342041015,0.0,24.0,,,,,,,,,,,,,,,,,,,,,,,,,,,,,,
0.0,1.0448526154505087e-05,3.0755398273468018,0.747702670097351,-4.638271639123559e-05,-0.0163378790020942,0.3041565418243408,-2.058767677226569e-05,0.0420109778642654,0.2171593606472015,0.0,3.4357309341430664,-0.43908100128173827,0.0,22.75,0.0,3.497958183288574,-0.5249116897583008,0.0,20.25,0.0,3.1414031982421875,0.5976821899414062,0.0,23.5,,,,,,,,,,,,,,,,,,,,,,,,,,,,,,
0.0,1.0448526154505087e-05,3.0755398273468018,0.747702670097351,-4.638271639123559e-05,-0.0163378790020942,0.3041565418243408,-2.058767677226569e-05,0.0420109778642654,0.2171593606472015,0.0,3.430366516113281,-0.4630420684814453,0.0,22.25,0.0,3.5065412521362305,-0.4873607635498047,0.0,20.0,,,,,,,,,,,,,,,,,,,,,,,,,,,,,,,,,,,
0.0,1.0448526154505087e-05,3.0755398273468018,0.747702670097351,-4.638271639123559e-05,-0.0163378790020942,0.3041565418243408,-2.058767677226569e-05,0.0420109778642654,0.2171593606472015,0.0,3.4275054931640625,-0.4712675094604492,0.0,21.5,0.0,3.5001039505004883,-0.49057941436767577,0.0,19.25,,,,,,,,,,,,,,,,,,,,,,,,,,,,,,,,,,,
0.0,1.0448526154505087e-05,3.0755398273468018,0.747702670097351,-4.638271639123559e-05,-0.0163378790020942,0.3041565418243408,-2.058767677226569e-05,0.0420109778642654,0.2171593606472015,0.0,3.4368038177490234,-0.49844722747802733,0.0,22.25,0.0,3.50797176361084,-0.507387924194336,0.0,20.5,0.0,3.6170482635498047,-0.42978267669677733,0.0,12.75,,,,,,,,,,,,,,,,,,,,,,,,,,,,,,
0.0,1.0207160812569782e-05,3.074843168258667,0.7494648814201355,-4.654948497773148e-05,-0.0145631534978747,0.3076176643371582,-2.06488803087268e-05,0.046242881566286,0.2205008268356323,0.0,3.010869026184082,0.8176233291625976,0.1917510479688644,12.25,0.0,3.4253597259521484,-0.5195472717285157,0.0,21.75,0.0,3.5047531127929688,-0.5098913192749024,0.0,20.25,0.0,3.6406517028808594,-0.35646896362304686,0.0,12.25,,,,,,,,,,,,,,,,,,,,,,,,,
0.0,1.0207160812569782e-05,3.074843168258667,0.7494648814201355,-4.654948497773148e-05,-0.0145631534978747,0.3076176643371582,-2.06488803087268e-05,0.046242881566286,0.2205008268356323,0.0,3.438591957092285,-0.5363557815551758,0.0,21.25,0.0,3.511905670166016,-0.47985057830810546,0.0,19.75,,,,,,,,,,,,,,,,,,,,,,,,,,,,,,,,,,,
0.0,1.0207160812569782e-05,3.074843168258667,0.7494648814201355,-4.654948497773148e-05,-0.0145631534978747,0.3076176643371582,-2.06488803087268e-05,0.046242881566286,0.2205008268356323,0.0,3.426074981689453,-0.5731914520263672,0.0,20.75,0.0,3.510117530822754,-0.5284879684448243,0.0,20.0,0.0,3.641009330749512,-0.38400630950927733,0.0,12.25,0.0,3.0308961868286133,0.6373788833618164,0.0,23.25,,,,,,,,,,,,,,,,,,,,,,,,,
0.0,1.0207160812569782e-05,3.074843168258667,0.7494648814201355,-4.654948497773148e-05,-0.0145631534978747,0.3076176643371582,-2.06488803087268e-05,0.046242881566286,0.2205008268356323,0.0,3.4350156784057617,-0.6182525634765625,0.0,20.75,0.0,3.494739532470703,-0.5950067520141602,0.0,20.0,,,,,,,,,,,,,,,,,,,,,,,,,,,,,,,,,,,
0.0,1.0207160812569782e-05,3.074843168258667,0.7494648814201355,-4.654948497773148e-05,-0.0145631534978747,0.3076176643371582,-2.06488803087268e-05,0.046242881566286,0.2205008268356323,0.0,3.439664840698242,-0.623974609375,0.0,21.75,0.0,3.5001039505004883,-0.586423683166504,0.0,20.75,0.0,3.594517707824707,-0.566754150390625,0.0,13.25,,,,,,,,,,,,,,,,,,,,,,,,,,,,,,
0.0,1.0207160812569782e-05,3.074843168258667,0.7494648814201355,-4.654948497773148e-05,-0.0145631534978747,0.3076176643371582,-2.06488803087268e-05,0.046242881566286,0.2205008268356323,0.0,3.4464597702026367,-0.600013542175293,0.0,22.0,0.0,3.500819206237793,-0.5678270339965821,0.0,20.75,0.0,3.6045312881469727,-0.5134675979614258,0.0,13.0,,,,,,,,,,,,,,,,,,,,,,,,,,,,,,
0.0,1.0207160812569782e-05,3.074843168258667,0.7494648814201355,-4.654948497773148e-05,-0.0145631534978747,0.3076176643371582,-2.06488803087268e-05,0.046242881566286,0.2205008268356323,0.0,3.4378767013549805,-0.5839202880859375,0.0,22.25,0.0,3.566980361938477,-0.6586645126342774,0.0,13.0,0.0,3.494739532470703,-0.5764101028442383,0.0,20.75,,,,,,,,,,,,,,,,,,,,,,,,,,,,,,
0.0,1.0207160812569782e-05,3.074843168258667,0.7494648814201355,-4.654948497773148e-05,-0.0145631534978747,0.3076176643371582,-2.06488803087268e-05,0.046242881566286,0.2205008268356323,0.0,3.5616159439086914,-0.6518695831298829,0.0,12.25,0.0,3.4493207931518555,-0.5621049880981446,0.0,21.25,0.0,3.4961700439453125,-0.5792711257934571,0.0,20.25,0.0,2.987980842590332,0.7489587783813476,0.0,24.25,0.0,3.026247024536133,0.7214214324951171,0.0,26.0,0.0,3.116011619567871,0.7439519882202148,0.0,20.5,,,,,,,,,,,,,,,
0.0,1.0207160812569782e-05,3.074843168258667,0.7494648814201355,-4.654948497773148e-05,-0.0145631534978747,0.3076176643371582,-2.06488803087268e-05,0.046242881566286,0.2205008268356323,0.0,3.4543275833129883,-0.5535219192504883,0.0,21.25,0.0,3.5065412521362305,-0.5538795471191407,0.0,20.5,0.0,2.9865503311157227,0.7747079849243164,0.0,24.5,0.0,3.0194520950317383,0.760760498046875,0.0,26.5,0.0,3.105640411376953,0.7843639373779296,0.0,21.0,0.0,2.8853416442871094,0.8619691848754882,0.0,15.0,,,,,,,,,,,,,,,
0.0,1.0207160812569782e-05,3.074843168258667,0.7494648814201355,-4.654948497773148e-05,-0.0145631534978747,0.3076176643371582,-2.06488803087268e-05,0.046242881566286,0.2205008268356323,0.0,3.449678421020508,-0.5492303848266602,0.0,21.0,0.0,3.509044647216797,-0.55531005859375,0.0,20.0,0.0,3.102421760559082,0.7782842636108398,0.0,22.25,,,,,,,,,,,,,,,,,,,,,,,,,,,,,,
0.0,1.0207160812569782e-05,3.074843168258667,0.7494648814201355,-4.654948497773148e-05,-0.0145631534978747,0.3076176643371582,-2.06488803087268e-05,0.046242881566286,0.2205008268356323,0.0,3.451824188232422,-0.5106065750122071,0.0,19.75,0.0,3.0230283737182617,0.7886554718017578,0.0,27.0,0.0,3.099918365478516,0.7950927734375,0.0,22.0,,,,,,,,,,,,,,,,,,,,,,,,,,,,,,
0.0,1.0207160812569782e-05,3.074843168258667,0.7494648814201355,-4.654948497773148e-05,-0.0145631534978747,0.3076176643371582,-2.06488803087268e-05,0.046242881566286,0.2205008268356323,0.0,3.466486930847168,-0.4548166275024414,0.0,19.75,0.0,3.532648086547852,-0.4558895111083984,0.0,19.0,0.0,3.029823303222656,0.8101131439208984,0.0,24.75,0.0,3.11887264251709,0.8047487258911132,0.0,20.5,,,,,,,,,,,,,,,,,,,,,,,,,
0.0,1.0207160812569782e-05,3.074843168258667,0.7494648814201355,-4.654948497773148e-05,-0.0145631534978747,0.3076176643371582,-2.06488803087268e-05,0.046242881566286,0.2205008268356323,0.0,3.4332275390625,-0.4623268127441406,0.0,15.75,0.0,3.531932830810547,-0.5052421569824219,0.0,15.5,0.0,3.02731990814209,0.8365776062011718,0.0,24.25,0.0,3.082752227783203,0.8719827651977539,0.0,20.25,,,,,,,,,,,,,,,,,,,,,,,,,
0.0,1.0207160812569782e-05,3.074843168258667,0.7494648814201355,-4.654948497773148e-05,-0.0145631534978747,0.3076176643371582,-2.06488803087268e-05,0.046242881566286,0.2205008268356323,0.0,3.431081771850586,-0.3586147308349609,0.0,15.5,0.0,3.5315752029418945,-0.5352828979492188,0.0,15.0,,,,,,,,,,,,,,,,,,,,,,,,,,,,,,,,,,,
0.0,1.0207160812569782e-05,3.074843168258667,0.7494648814201355,-4.654948497773148e-05,-0.0145631534978747,0.3076176643371582,-2.06488803087268e-05,0.046242881566286,0.2205008268356323,0.0,3.47292423248291,-0.39545040130615233,0.0,16.25,0.0,3.550887107849121,-0.4269216537475586,0.0,16.25,,,,,,,,,,,,,,,,,,,,,,,,,,,,,,,,,,,
0.0,1.0207160812569782e-05,3.074843168258667,0.7494648814201355,-4.654948497773148e-05,-0.0145631534978747,0.3076176643371582,-2.06488803087268e-05,0.046242881566286,0.2205008268356323,0.0,3.490447998046875,-0.43729286193847655,0.0,17.25,0.0,3.5419464111328125,-0.4809234619140625,0.0,18.0,0.0,2.971172332763672,0.8737709045410156,0.0,21.0,,,,,,,,,,,,,,,,,,,,,,,,,,,,,,
0.0,1.0207160812569782e-05,3.074843168258667,0.7494648814201355,-4.654948497773148e-05,-0.0145631534978747,0.3076176643371582,-2.06488803087268e-05,0.046242881566286,0.2205008268356323,0.0,3.482937812805176,-0.4909370422363281,0.0,14.75,0.0,3.5555362701416016,-0.5045269012451172,0.0,15.75,0.0,2.945423126220703,0.9481575012207031,0.0,20.25,0.0,2.9954910278320312,0.9070302963256835,0.0,22.25,,,,,,,,,,,,,,,,,,,,,,,,,
0.0,1.0207160812569782e-05,3.074843168258667,0.7494648814201355,-4.654948497773148e-05,-0.0145631534978747,0.3076176643371582,-2.06488803087268e-05,0.046242881566286,0.2205008268356323,0.0,3.491520881652832,-0.4444454193115234,0.0,12.75,0.0,3.5734176635742188,-0.4591081619262695,0.0,14.0,0.0,2.991914749145508,0.6756450653076171,0.0,13.5,,,,,,,,,,,,,,,,,,,,,,,,,,,,,,
0.0,1.0207160812569782e-05,3.074843168258667,0.7494648814201355,-4.654948497773148e-05,-0.0145631534978747,0.3076176643371582,-2.06488803087268e-05,0.046242881566286,0.2205008268356323,0.0,3.4900903701782227,-0.45767765045166015,0.0,15.0,0.0,3.5505294799804688,-0.4934404373168945,0.0,15.25,0.0,2.970099449157715,0.8344318389892578,0.0,14.25,0.0,3.0062198638916016,0.9474422454833984,0.0,16.5,,,,,,,,,,,,,,,,,,,,,,,,,
0.0,1.0207160812569782e-05,3.074843168258667,0.7494648814201355,-4.654948497773148e-05,-0.0145631534978747,0.3076176643371582,-2.06488803087268e-05,0.046242881566286,0.2205008268356323,0.0,3.47292423248291,-0.373277473449707,0.0,15.75,0.0,3.567337989807129,-0.4129741668701172,0.0,15.5,0.0,3.018021583557129,0.6094839096069335,0.0,18.0,,,,,,,,,,,,,,,,,,,,,,,,,,,,,,
0.0,9.976120054489002e-06,3.0746548175811768,0.7513224601745605,-4.672166323871352e-05,-0.0126928081735968,0.3110972046852112,-2.0716979634016752e-05,0.0499634221196174,0.223750427365303,0.0,3.04412841796875,0.8262063980102539,0.1917510479688644,14.25,0.0,3.5587549209594727,-0.4873607635498047,0.0,15.75,0.0,3.031611442565918,0.5823041915893554,0.0,20.75,0.0,3.052353858947754,0.6069805145263671,0.0,23.25,,,,,,,,,,,,,,,,,,,,,,,,,
0.0,9.752821824804414e-06,3.073681116104126,0.7519565939903259,-4.6864057367201895e-05,-0.0109766153618693,0.3130931556224823,-2.0764817236340605e-05,0.0544589385390281,0.2261350303888321,0.0,2.990841865539551,0.7664825439453125,0.1917510479688644,12.25,0.0,3.391742706298828,-0.2795789718627929,0.0,13.75,0.0,3.031611442565918,0.6695653915405273,0.0,25.75,0.0,3.117084503173828,0.6216432571411132,0.0,20.25,0.0,2.927541732788086,0.682797622680664,0.0,13.5,0.0,3.004789352416992,0.6899501800537109,0.0,24.0,,,,,,,,,,,,,,,
0.0,9.752821824804414e-06,3.073681116104126,0.7519565939903259,-4.6864057367201895e-05,-0.0109766153618693,0.3130931556224823,-2.0764817236340605e-05,0.0544589385390281,0.2261350303888321,0.0,3.1256675720214844,0.6212856292724609,0.0,20.5,,,,,,,,,,,,,,,,,,,,,,,,,,,,,,,,,,,,,,,,
0.0,9.752821824804414e-06,3.073681116104126,0.7519565939903259,-4.6864057367201895e-05,-0.0109766153618693,0.3130931556224823,-2.0764817236340605e-05,0.0544589385390281,0.2261350303888321,,,,,,,,,,,,,,,,,,,,,,,,,,,,,,,,,,,,,,,,,,,,,
0.0,9.752821824804414e-06,3.073681116104126,0.7519565939903259,-4.6864057367201895e-05,-0.0109766153618693,0.3130931556224823,-2.0764817236340605e-05,0.0544589385390281,0.2261350303888321,,,,,,,,,,,,,,,,,,,,,,,,,,,,,,,,,,,,,,,,,,,,,
0.0,9.752821824804414e-06,3.073681116104126,0.7519565939903259,-4.6864057367201895e-05,-0.0109766153618693,0.3130931556224823,-2.0764817236340605e-05,0.0544589385390281,0.2261350303888321,,,,,,,,,,,,,,,,,,,,,,,,,,,,,,,,,,,,,,,,,,,,,
0.0,9.752821824804414e-06,3.073681116104126,0.7519565939903259,-4.6864057367201895e-05,-0.0109766153618693,0.3130931556224823,-2.0764817236340605e-05,0.0544589385390281,0.2261350303888321,,,,,,,,,,,,,,,,,,,,,,,,,,,,,,,,,,,,,,,,,,,,,
0.0,9.752821824804414e-06,3.073681116104126,0.7519565939903259,-4.6864057367201895e-05,-0.0109766153618693,0.3130931556224823,-2.0764817236340605e-05,0.0544589385390281,0.2261350303888321,,,,,,,,,,,,,,,,,,,,,,,,,,,,,,,,,,,,,,,,,,,,,
0.0,9.752821824804414e-06,3.073681116104126,0.7519565939903259,-4.6864057367201895e-05,-0.0109766153618693,0.3130931556224823,-2.0764817236340605e-05,0.0544589385390281,0.2261350303888321,0.0,2.947211265563965,0.6448890686035156,0.0,15.0,,,,,,,,,,,,,,,,,,,,,,,,,,,,,,,,,,,,,,,,
0.0,9.752821824804414e-06,3.073681116104126,0.7519565939903259,-4.6864057367201895e-05,-0.0109766153618693,0.3130931556224823,-2.0764817236340605e-05,0.0544589385390281,0.2261350303888321,0.0,3.507256507873535,-0.6250474929809571,0.0,21.0,0.0,3.558039665222168,-0.7123086929321287,0.0,14.5,0.0,3.4421682357788086,-0.5746219635009766,0.0,21.25,0.0,2.970457077026367,0.4793073654174804,0.0,12.5,0.0,3.045201301574707,0.6076957702636718,0.0,25.5,0.0,3.0995607376098637,0.7782842636108398,0.0,23.25,,,,,,,,,,,,,,,
0.0,9.752821824804414e-06,3.073681116104126,0.7519565939903259,-4.6864057367201895e-05,-0.0109766153618693,0.3130931556224823,-2.0764817236340605e-05,0.0544589385390281,0.2261350303888321,0.0,3.596663475036621,-0.643644142150879,0.0,13.75,0.0,3.429651260375977,-0.4794929504394531,0.0,19.0,0.0,3.523707389831543,-0.5957220077514649,0.0,18.5,0.0,2.9658079147338867,0.5075599670410156,0.0,12.0,0.0,3.1131505966186523,0.7249977111816406,0.0,23.25,,,,,,,,,,,,,,,,,,,,
0.0,9.752821824804414e-06,3.073681116104126,0.7519565939903259,-4.6864057367201895e-05,-0.0109766153618693,0.3130931556224823,-2.0764817236340605e-05,0.0544589385390281,0.2261350303888321,0.0,3.580927848815918,-0.6697509765625,0.0,14.25,0.0,3.475785255432129,-0.5481575012207032,0.0,19.0,0.0,3.5262107849121094,-0.5835626602172852,0.0,19.75,0.0,3.1507015228271484,0.7704164505004882,0.0,19.0,,,,,,,,,,,,,,,,,,,,,,,,,
0.0,9.752821824804414e-06,3.073681116104126,0.7519565939903259,-4.6864057367201895e-05,-0.0109766153618693,0.3130931556224823,-2.0764817236340605e-05,0.0544589385390281,0.2261350303888321,0.0,3.5855770111083984,-0.6461475372314454,0.0,13.5,0.0,3.463268280029297,-0.5714033126831055,0.0,17.75,0.0,3.536224365234375,-0.5878541946411133,0.0,18.75,,,,,,,,,,,,,,,,,,,,,,,,,,,,,,
0.0,9.62903959589312e-06,3.073014974594116,0.7495691299438476,-4.7007422836031765e-05,-0.0141993891447782,0.3085239827632904,-2.0837447664234787e-05,0.0493938401341438,0.2218203395605087,0.0,3.0519962310791016,0.6556179046630859,-0.1917510479688644,12.75,0.0,3.465414047241211,-0.4548166275024414,0.0,17.0,0.0,3.530502319335937,-0.586423683166504,0.0,16.75,,,,,,,,,,,,,,,,,,,,,,,,,,,,,,
0.0,9.62903959589312e-06,3.073014974594116,0.7495691299438476,-4.7007422836031765e-05,-0.0141993891447782,0.3085239827632904,-2.0837447664234787e-05,0.0493938401341438,0.2218203395605087,0.0,3.4532546997070312,-0.5678270339965821,0.0,16.5,0.0,3.518342971801758,-0.5892847061157227,0.0,16.0,,,,,,,,,,,,,,,,,,,,,,,,,,,,,,,,,,,
0.0,9.62903959589312e-06,3.073014974594116,0.7495691299438476,-4.7007422836031765e-05,-0.0141993891447782,0.3085239827632904,-2.0837447664234787e-05,0.0493938401341438,0.2218203395605087,0.0,3.473997116088867,-0.4930828094482422,0.0,20.5,0.0,3.499746322631836,-0.5628202438354493,0.0,18.75,0.0,3.216862678527832,0.4671480178833008,0.0,16.5,0.0,3.026247024536133,0.5848075866699218,0.0,23.0,0.0,2.899289131164551,0.7500316619873046,0.0,13.25,,,,,,,,,,,,,,,,,,,,
0.0,9.62903959589312e-06,3.073014974594116,0.7495691299438476,-4.7007422836031765e-05,-0.0141993891447782,0.3085239827632904,-2.0837447664234787e-05,0.0493938401341438,0.2218203395605087,0.0,3.487229347229004,-0.610384750366211,0.0,20.25,0.0,3.5104751586914062,-0.8435581207275391,0.0,12.5,0.0,3.4693479537963867,-0.5295608520507813,0.0,21.25,0.0,3.22723388671875,0.4088546752929687,0.0,17.0,0.0,2.8853416442871094,0.8290674209594726,0.0,13.25,0.0,2.980828285217285,0.7300045013427734,0.0,22.25,,,,,,,,,,,,,,,
0.0,9.62903959589312e-06,3.073014974594116,0.7495691299438476,-4.7007422836031765e-05,-0.0141993891447782,0.3085239827632904,-2.0837447664234787e-05,0.0493938401341438,0.2218203395605087,0.0,3.4682750701904297,-0.441942024230957,0.0,21.0,0.0,3.4922361373901367,-0.55531005859375,0.0,19.25,0.0,3.2379627227783203,0.3237392425537109,0.0,18.0,0.0,3.0301809310913086,0.6405975341796875,0.0,23.5,0.0,2.9729604721069336,0.7478858947753906,0.0,22.75,0.0,2.870321273803711,0.8769895553588867,0.0,14.25,,,,,,,,,,,,,,,
0.0,9.62903959589312e-06,3.073014974594116,0.7495691299438476,-4.7007422836031765e-05,-0.0141993891447782,0.3085239827632904,-2.0837447664234787e-05,0.0493938401341438,0.2218203395605087,0.0,3.4668445587158203,-0.41941146850585936,0.0,20.25,0.0,3.5065412521362305,-0.4655454635620117,0.0,17.75,0.0,3.167152404785156,0.5751516342163085,0.0,18.5,0.0,2.981901168823242,0.7586147308349609,0.0,24.0,0.0,3.014802932739258,0.6885196685791015,0.0,25.25,0.0,2.879977226257324,0.878420066833496,0.0,14.5,,,,,,,,,,,,,,,
0.0,9.62903959589312e-06,3.073014974594116,0.7495691299438476,-4.7007422836031765e-05,-0.0141993891447782,0.3085239827632904,-2.0837447664234787e-05,0.0493938401341438,0.2218203395605087,0.0,3.4557580947875977,-0.5120370864868165,0.0,19.0,0.0,3.507256507873535,-0.5510185241699219,0.0,17.75,0.0,2.9000043869018555,0.8169080734252929,0.0,15.0,0.0,2.987980842590332,0.7589723587036132,0.0,24.75,0.0,3.013730049133301,0.7178451538085937,0.0,26.25,0.0,3.08990478515625,0.8008148193359375,0.0,19.75,,,,,,,,,,,,,,,
0.0,9.62903959589312e-06,3.073014974594116,0.7495691299438476,-4.7007422836031765e-05,-0.0141993891447782,0.3085239827632904,-2.0837447664234787e-05,0.0493938401341438,0.2218203395605087,0.0,3.444671630859375,-0.4802082061767578,0.0,17.5,0.0,3.5086870193481445,-0.5842779159545899,0.0,16.75,0.0,3.1288862228393555,0.6960298538208007,0.0,19.0,0.0,2.960085868835449,0.8151199340820312,0.0,24.25,0.0,3.007650375366211,0.7521774291992187,0.0,24.75,0.0,2.879977226257324,0.8748437881469726,0.0,15.25,,,,,,,,,,,,,,,
0.0,9.62903959589312e-06,3.073014974594116,0.7495691299438476,-4.7007422836031765e-05,-0.0141993891447782,0.3085239827632904,-2.0837447664234787e-05,0.0493938401341438,0.2218203395605087,0.0,3.4285783767700195,-0.47341327667236327,0.0,17.75,0.0,3.517627716064453,-0.5106065750122071,0.0,16.75,0.0,3.1228065490722656,0.6549026489257812,0.0,20.5,0.0,2.892136573791504,0.8587505340576171,0.0,14.75,0.0,2.980828285217285,0.807609748840332,0.0,24.75,0.0,3.013014793395996,0.7657672882080078,0.0,26.5,0.0,2.891778945922852,0.8587505340576171,0.0,15.0,,,,,,,,,,
0.0,9.62903959589312e-06,3.073014974594116,0.7495691299438476,-4.7007422836031765e-05,-0.0141993891447782,0.3085239827632904,-2.0837447664234787e-05,0.0493938401341438,0.2218203395605087,0.0,3.119230270385742,0.6262924194335937,0.0,20.5,0.0,2.990841865539551,0.7750656127929687,0.0,24.5,0.0,3.020882606506348,0.7471706390380859,0.0,26.25,0.0,2.891063690185547,0.8705522537231445,0.0,14.5,,,,,,,,,,,,,,,,,,,,,,,,,
0.0,9.62903959589312e-06,3.073014974594116,0.7495691299438476,-4.7007422836031765e-05,-0.0141993891447782,0.3085239827632904,-2.0837447664234787e-05,0.0493938401341438,0.2218203395605087,0.0,3.1120777130126958,0.6413127899169921,0.0,21.0,,,,,,,,,,,,,,,,,,,,,,,,,,,,,,,,,,,,,,,,
0.0,9.62903959589312e-06,3.073014974594116,0.7495691299438476,-4.7007422836031765e-05,-0.0141993891447782,0.3085239827632904,-2.0837447664234787e-05,0.0493938401341438,0.2218203395605087,0.0,3.5626888275146484,-0.3886554718017578,0.0,14.75,,,,,,,,,,,,,,,,,,,,,,,,,,,,,,,,,,,,,,,,
0.0,9.62903959589312e-06,3.073014974594116,0.7495691299438476,-4.7007422836031765e-05,-0.0141993891447782,0.3085239827632904,-2.0837447664234787e-05,0.0493938401341438,0.2218203395605087,0.0,3.4035444259643555,-0.45124034881591796,0.0,15.75,0.0,3.559112548828125,-0.40117244720458983,0.0,15.5,0.0,3.0831098556518555,0.7013942718505859,0.0,22.0,,,,,,,,,,,,,,,,,,,,,,,,,,,,,,
0.0,9.62903959589312e-06,3.073014974594116,0.7495691299438476,-4.7007422836031765e-05,-0.0141993891447782,0.3085239827632904,-2.0837447664234787e-05,0.0493938401341438,0.2218203395605087,0.0,3.3981800079345703,-0.21484832763671868,0.0,15.0,0.0,3.603458404541016,-0.2516839981079101,0.0,15.0,,,,,,,,,,,,,,,,,,,,,,,,,,,,,,,,,,,
0.0,9.62903959589312e-06,3.073014974594116,0.7495691299438476,-4.7007422836031765e-05,-0.0141993891447782,0.3085239827632904,-2.0837447664234787e-05,0.0493938401341438,0.2218203395605087,0.0,3.5609006881713867,-0.464830207824707,0.0,13.75,0.0,3.372788429260254,-0.30890445709228515,0.0,13.75,0.0,3.020167350769043,0.6570484161376953,0.0,27.75,0.0,3.1027793884277344,0.6069805145263671,0.0,21.25,0.0,2.899646759033203,0.8186962127685546,0.0,17.75,0.0,2.9779672622680664,0.7475282669067382,0.0,27.0,,,,,,,,,,,,,,,
0.0,9.62903959589312e-06,3.073014974594116,0.7495691299438476,-4.7007422836031765e-05,-0.0141993891447782,0.3085239827632904,-2.0837447664234787e-05,0.0493938401341438,0.2218203395605087,0.0,3.3652782440185547,-0.3239248275756836,0.0,14.0,0.0,3.598451614379883,-0.2856586456298828,0.0,13.5,0.0,3.0080080032348637,0.6298686981201171,0.0,27.5,0.0,3.028392791748047,0.5976821899414062,0.0,28.75,0.0,3.094196319580078,0.6034042358398437,0.0,22.0,0.0,2.916097640991211,0.7593299865722656,0.0,17.75,,,,,,,,,,,,,,,
0.0,9.62903959589312e-06,3.073014974594116,0.7495691299438476,-4.7007422836031765e-05,-0.0141993891447782,0.3085239827632904,-2.0837447664234787e-05,0.0493938401341438,0.2218203395605087,0.0,3.41033935546875,-0.46983699798583983,0.0,16.75,0.0,3.532290458679199,-0.49844722747802733,0.0,16.75,0.0,2.99835205078125,0.6667043685913085,0.0,28.5,0.0,3.014445304870605,0.6191398620605468,0.0,29.5,0.0,2.924323081970215,0.7271434783935546,0.0,18.75,,,,,,,,,,,,,,,,,,,,
0.0,9.62903959589312e-06,3.073014974594116,0.7495691299438476,-4.7007422836031765e-05,-0.0141993891447782,0.3085239827632904,-2.0837447664234787e-05,0.0493938401341438,0.2218203395605087,0.0,3.379225730895996,-0.5331371307373047,0.0,17.0,0.0,3.5222768783569336,-0.5792711257934571,0.0,16.75,0.0,3.0062198638916016,0.6584789276123046,0.0,29.0,0.0,3.024458885192871,0.6434585571289062,0.0,30.75,0.0,3.0766725540161133,0.683870506286621,0.0,23.75,0.0,2.9250383377075195,0.7310773849487304,0.0,19.0,,,,,,,,,,,,,,,
0.0,9.62903959589312e-06,3.073014974594116,0.7495691299438476,-4.7007422836031765e-05,-0.0141993891447782,0.3085239827632904,-2.0837447664234787e-05,0.0493938401341438,0.2218203395605087,0.0,3.521203994750977,-0.5013082504272461,0.0,14.0,0.0,3.372788429260254,-0.32106380462646483,0.0,15.25,0.0,3.009796142578125,0.6563331604003906,0.0,27.5,0.0,3.025531768798828,0.6667043685913085,0.0,29.25,0.0,2.930760383605957,0.7013942718505859,0.0,17.25,0.0,3.082394599914551,0.7021095275878906,0.0,22.75,,,,,,,,,,,,,,,
0.0,9.62903959589312e-06,3.073014974594116,0.7495691299438476,-4.7007422836031765e-05,-0.0141993891447782,0.3085239827632904,-2.0837447664234787e-05,0.0493938401341438,0.2218203395605087,0.0,3.529071807861328,-0.4623268127441406,0.0,12.5,0.0,3.3649206161499023,-0.17550926208496087,0.0,14.0,0.0,2.9457807540893555,0.6470348358154296,0.0,16.75,0.0,3.018379211425781,0.6459619522094726,0.0,28.0,0.0,3.028392791748047,0.6684925079345703,0.0,30.0,0.0,3.074169158935547,0.7124807357788085,0.0,23.75,,,,,,,,,,,,,,,
0.0,9.62903959589312e-06,3.073014974594116,0.7495691299438476,-4.7007422836031765e-05,-0.0141993891447782,0.3085239827632904,-2.0837447664234787e-05,0.0493938401341438,0.2218203395605087,0.0,3.497600555419922,-0.6014440536499024,0.0,13.75,0.0,3.357052803039551,-0.4415843963623047,0.0,15.0,0.0,3.005862236022949,0.6634857177734375,0.0,28.0,0.0,3.0241012573242188,0.6695653915405273,0.0,29.5,0.0,3.081679344177246,0.669207763671875,0.0,23.0,0.0,2.9296875,0.6974603652954101,0.0,17.75,,,,,,,,,,,,,,,
0.0,9.62903959589312e-06,3.073014974594116,0.7495691299438476,-4.7007422836031765e-05,-0.0141993891447782,0.3085239827632904,-2.0837447664234787e-05,0.0493938401341438,0.2218203395605087,0.0,2.953648567199707,0.5722906112670898,0.0,15.75,0.0,3.0237436294555664,0.592317771911621,0.0,27.0,0.0,3.0308961868286133,0.6127025604248046,0.0,28.75,0.0,3.0705928802490234,0.6788637161254882,0.0,21.75,,,,,,,,,,,,,,,,,,,,,,,,,
0.0,9.62903959589312e-06,3.073014974594116,0.7495691299438476,-4.7007422836031765e-05,-0.0141993891447782,0.3085239827632904,-2.0837447664234787e-05,0.0493938401341438,0.2218203395605087,0.0,3.014445304870605,0.6345178604125976,0.0,26.75,0.0,3.028750419616699,0.649538230895996,0.0,28.5,0.0,2.925395965576172,0.7353689193725585,0.0,16.25,,,,,,,,,,,,,,,,,,,,,,,,,,,,,,
0.0,9.62903959589312e-06,3.073014974594116,0.7495691299438476,-4.7007422836031765e-05,-0.0141993891447782,0.3085239827632904,-2.0837447664234787e-05,0.0493938401341438,0.2218203395605087,0.0,2.9364824295043945,0.7049705505371093,0.0,17.0,0.0,3.0101537704467773,0.6924535751342773,0.0,28.25,0.0,3.017663955688477,0.7081892013549804,0.0,30.0,0.0,3.0580759048461914,0.7850791931152343,0.0,23.25,,,,,,,,,,,,,,,,,,,,,,,,,
0.0,9.62903959589312e-06,3.073014974594116,0.7495691299438476,-4.7007422836031765e-05,-0.0141993891447782,0.3085239827632904,-2.0837447664234787e-05,0.0493938401341438,0.2218203395605087,0.0,3.3903121948242188,-0.3861520767211914,0.0,17.5,0.0,3.505110740661621,-0.4834268569946289,0.0,15.25,0.0,3.024458885192871,0.6734992980957031,0.0,26.5,0.0,2.921462059020996,0.761833381652832,0.0,15.5,0.0,3.0355453491210938,0.7214214324951171,0.0,29.25,,,,,,,,,,,,,,,,,,,,
0.0,9.62903959589312e-06,3.073014974594116,0.7495691299438476,-4.7007422836031765e-05,-0.0141993891447782,0.3085239827632904,-2.0837447664234787e-05,0.0493938401341438,0.2218203395605087,0.0,3.5151243209838867,-0.5091760635375977,0.0,14.75,0.0,3.372073173522949,-0.3289316177368164,0.0,16.0,0.0,3.0205249786376958,0.6674196243286132,0.0,26.25,0.0,2.935409545898437,0.7024671554565429,0.0,15.25,,,,,,,,,,,,,,,,,,,,,,,,,
0.0,9.62903959589312e-06,3.073014974594116,0.7495691299438476,-4.7007422836031765e-05,-0.0141993891447782,0.3085239827632904,-2.0837447664234787e-05,0.0493938401341438,0.2218203395605087,0.0,3.4189224243164062,-0.44802169799804686,0.0,17.0,0.0,3.5201311111450195,-0.4902217864990234,0.0,16.75,,,,,,,,,,,,,,,,,,,,,,,,,,,,,,,,,,,
0.0,9.62903959589312e-06,3.073014974594116,0.7495691299438476,-4.7007422836031765e-05,-0.0141993891447782,0.3085239827632904,-2.0837447664234787e-05,0.0493938401341438,0.2218203395605087,0.0,3.414630889892578,-0.4623268127441406,0.0,17.5,0.0,3.5190582275390625,-0.45696239471435546,0.0,16.5,,,,,,,,,,,,,,,,,,,,,,,,,,,,,,,,,,,
0.0,9.62903959589312e-06,3.073014974594116,0.7495691299438476,-4.7007422836031765e-05,-0.0141993891447782,0.3085239827632904,-2.0837447664234787e-05,0.0493938401341438,0.2218203395605087,0.0,3.420710563659668,-0.30890445709228515,0.0,17.5,0.0,3.5387277603149414,-0.3357265472412109,0.0,16.25,,,,,,,,,,,,,,,,,,,,,,,,,,,,,,,,,,,
0.0,9.62903959589312e-06,3.073014974594116,0.7495691299438476,-4.7007422836031765e-05,-0.0141993891447782,0.3085239827632904,-2.0837447664234787e-05,0.0493938401341438,0.2218203395605087,0.0,3.403186798095703,-0.5266998291015625,0.0,16.75,0.0,3.499388694763184,-0.5792711257934571,0.0,16.25,,,,,,,,,,,,,,,,,,,,,,,,,,,,,,,,,,,
0.0,9.62903959589312e-06,3.073014974594116,0.7495691299438476,-4.7007422836031765e-05,-0.0141993891447782,0.3085239827632904,-2.0837447664234787e-05,0.0493938401341438,0.2218203395605087,,,,,,,,,,,,,,,,,,,,,,,,,,,,,,,,,,,,,,,,,,,,,
0.0,9.62903959589312e-06,3.073014974594116,0.7495691299438476,-4.7007422836031765e-05,-0.0141993891447782,0.3085239827632904,-2.0837447664234787e-05,0.0493938401341438,0.2218203395605087,0.0,3.1560659408569336,0.623431396484375,0.0,20.75,0.0,3.039479255676269,0.7239248275756835,0.0,25.25,,,,,,,,,,,,,,,,,,,,,,,,,,,,,,,,,,,
0.0,9.62903959589312e-06,3.073014974594116,0.7495691299438476,-4.7007422836031765e-05,-0.0141993891447782,0.3085239827632904,-2.0837447664234787e-05,0.0493938401341438,0.2218203395605087,0.0,3.443598747253418,-0.2738569259643554,0.0,18.25,0.0,3.170371055603028,0.6327297210693359,0.0,20.5,0.0,2.993345260620117,0.8140470504760742,0.0,20.75,,,,,,,,,,,,,,,,,,,,,,,,,,,,,,
0.0,9.62903959589312e-06,3.073014974594116,0.7495691299438476,-4.7007422836031765e-05,-0.0141993891447782,0.3085239827632904,-2.0837447664234787e-05,0.0493938401341438,0.2218203395605087,0.0,3.432154655456543,-0.34073333740234374,0.0,17.5,0.0,3.5480260848999023,-0.2752874374389648,0.0,16.0,0.0,3.061652183532715,0.6853010177612304,0.0,22.75,0.0,3.183245658874512,0.5637075424194335,0.0,19.25,,,,,,,,,,,,,,,,,,,,,,,,,
0.0,9.62903959589312e-06,3.073014974594116,0.7495691299438476,-4.7007422836031765e-05,-0.0141993891447782,0.3085239827632904,-2.0837447664234787e-05,0.0493938401341438,0.2218203395605087,0.0,3.432869911193848,-0.3103349685668945,0.0,17.5,0.0,3.211855888366699,0.4803802490234375,0.0,18.5,,,,,,,,,,,,,,,,,,,,,,,,,,,,,,,,,,,
0.0,9.62903959589312e-06,3.073014974594116,0.7495691299438476,-4.7007422836031765e-05,-0.0141993891447782,0.3085239827632904,-2.0837447664234787e-05,0.0493938401341438,0.2218203395605087,,,,,,,,,,,,,,,,,,,,,,,,,,,,,,,,,,,,,,,,,,,,,
0.0,9.62903959589312e-06,3.073014974594116,0.7495691299438476,-4.7007422836031765e-05,-0.0141993891447782,0.3085239827632904,-2.0837447664234787e-05,0.0493938401341438,0.2218203395605087,,,,,,,,,,,,,,,,,,,,,,,,,,,,,,,,,,,,,,,,,,,,,
0.0,9.62903959589312e-06,3.073014974594116,0.7495691299438476,-4.7007422836031765e-05,-0.0141993891447782,0.3085239827632904,-2.0837447664234787e-05,0.0493938401341438,0.2218203395605087,0.0,2.9790401458740234,2.650108528137207,0.0,12.25,,,,,,,,,,,,,,,,,,,,,,,,,,,,,,,,,,,,,,,,
0.0,9.62903959589312e-06,3.073014974594116,0.7495691299438476,-4.7007422836031765e-05,-0.0141993891447782,0.3085239827632904,-2.0837447664234787e-05,0.0493938401341438,0.2218203395605087,,,,,,,,,,,,,,,,,,,,,,,,,,,,,,,,,,,,,,,,,,,,,
0.0,9.62903959589312e-06,3.073014974594116,0.7495691299438476,-4.7007422836031765e-05,-0.0141993891447782,0.3085239827632904,-2.0837447664234787e-05,0.0493938401341438,0.2218203395605087,,,,,,,,,,,,,,,,,,,,,,,,,,,,,,,,,,,,,,,,,,,,,
0.0,9.62903959589312e-06,3.073014974594116,0.7495691299438476,-4.7007422836031765e-05,-0.0141993891447782,0.3085239827632904,-2.0837447664234787e-05,0.0493938401341438,0.2218203395605087,0.0,3.5337209701538086,-0.508460807800293,0.0,16.75,,,,,,,,,,,,,,,,,,,,,,,,,,,,,,,,,,,,,,,,
0.0,9.62903959589312e-06,3.073014974594116,0.7495691299438476,-4.7007422836031765e-05,-0.0141993891447782,0.3085239827632904,-2.0837447664234787e-05,0.0493938401341438,0.2218203395605087,0.0,3.406405448913574,-0.4401538848876953,0.0,15.75,0.0,3.5355091094970703,-0.5163286209106446,0.0,15.25,0.0,3.0444860458374023,0.6209280014038085,0.0,19.75,,,,,,,,,,,,,,,,,,,,,,,,,,,,,,
0.0,9.62903959589312e-06,3.073014974594116,0.7495691299438476,-4.7007422836031765e-05,-0.0141993891447782,0.3085239827632904,-2.0837447664234787e-05,0.0493938401341438,0.2218203395605087,0.0,3.443598747253418,-0.4369352340698242,0.0,17.5,0.0,3.5605430603027344,-0.3632638931274414,0.0,16.5,,,,,,,,,,,,,,,,,,,,,,,,,,,,,,,,,,,
0.0,9.62903959589312e-06,3.073014974594116,0.7495691299438476,-4.7007422836031765e-05,-0.0141993891447782,0.3085239827632904,-2.0837447664234787e-05,0.0493938401341438,0.2218203395605087,0.0,3.420352935791016,-0.4558895111083984,0.0,15.5,0.0,3.551244735717773,-0.4186962127685547,0.0,15.0,,,,,,,,,,,,,,,,,,,,,,,,,,,,,,,,,,,
0.0,9.62903959589312e-06,3.073014974594116,0.7495691299438476,-4.7007422836031765e-05,-0.0141993891447782,0.3085239827632904,-2.0837447664234787e-05,0.0493938401341438,0.2218203395605087,0.0,3.426790237426758,-0.588569450378418,0.0,15.25,0.0,3.5190582275390625,-0.609311866760254,0.0,15.25,,,,,,,,,,,,,,,,,,,,,,,,,,,,,,,,,,,
0.0,9.62903959589312e-06,3.073014974594116,0.7495691299438476,-4.7007422836031765e-05,-0.0141993891447782,0.3085239827632904,-2.0837447664234787e-05,0.0493938401341438,0.2218203395605087,0.0,3.4368038177490234,-0.43478946685791015,0.0,14.5,0.0,3.585934638977051,-0.3300045013427734,0.0,14.25,,,,,,,,,,,,,,,,,,,,,,,,,,,,,,,,,,,
0.0,9.62903959589312e-06,3.073014974594116,0.7495691299438476,-4.7007422836031765e-05,-0.0141993891447782,0.3085239827632904,-2.0837447664234787e-05,0.0493938401341438,0.2218203395605087,0.0,3.415346145629883,-0.5578134536743165,0.0,14.75,0.0,3.544449806213379,-0.4819963455200195,0.0,14.25,,,,,,,,,,,,,,,,,,,,,,,,,,,,,,,,,,,
0.0,9.62903959589312e-06,3.073014974594116,0.7495691299438476,-4.7007422836031765e-05,-0.0141993891447782,0.3085239827632904,-2.0837447664234787e-05,0.0493938401341438,0.2218203395605087,0.0,3.4332275390625,-0.6139610290527344,0.0,16.25,0.0,3.5108327865600586,-0.5914304733276368,0.0,15.25,0.0,3.0891895294189453,0.7807876586914062,0.0,18.25,,,,,,,,,,,,,,,,,,,,,,,,,,,,,,
0.0,9.398720067110844e-06,3.068681240081787,0.7513458251953125,-4.72220235678833e-05,-0.0225529000163078,0.3086207807064056,-2.0933210180373862e-05,0.0398459360003471,0.2199134081602096,0.0,2.9304027557373047,0.831570816040039,-0.1917510479688644,15.0,0.0,2.965092658996582,0.8172657012939453,-0.1917510479688644,14.75,0.0,3.41176986694336,-0.5538795471191407,0.0,16.25,0.0,3.5398006439208984,-0.4097555160522461,0.0,15.25,0.0,3.0698776245117188,0.831570816040039,0.0,20.75,,,,,,,,,,,,,,,,,,,,
0.0,9.398720067110844e-06,3.068681240081787,0.7513458251953125,-4.72220235678833e-05,-0.0225529000163078,0.3086207807064056,-2.0933210180373862e-05,0.0398459360003471,0.2199134081602096,0.0,3.4160614013671875,-0.4644725799560547,0.0,14.25,0.0,3.543019294738769,-0.4337165832519531,0.0,12.0,0.0,2.980470657348633,0.8730556488037109,0.0,24.25,0.0,3.0466318130493164,0.9245540618896484,0.0,18.25,,,,,,,,,,,,,,,,,,,,,,,,,
0.0,9.398720067110844e-06,3.068681240081787,0.7513458251953125,-4.72220235678833e-05,-0.0225529000163078,0.3086207807064056,-2.0933210180373862e-05,0.0398459360003471,0.2199134081602096,0.0,3.399252891540528,-0.4115436553955078,0.0,13.0,0.0,3.110647201538086,0.693168830871582,0.0,17.5,0.0,2.978682518005371,0.7650520324707031,0.0,22.25,0.0,3.0122995376586914,0.752535057067871,0.0,23.5,0.0,2.8667449951171875,0.9020235061645507,0.0,13.25,,,,,,,,,,,,,,,,,,,,
0.0,9.398720067110844e-06,3.068681240081787,0.7513458251953125,-4.72220235678833e-05,-0.0225529000163078,0.3086207807064056,-2.0933210180373862e-05,0.0398459360003471,0.2199134081602096,0.0,3.411412239074707,-0.327501106262207,0.0,13.25,0.0,3.120660781860352,0.695314598083496,0.0,16.25,0.0,3.0062198638916016,0.7282163619995117,0.0,22.5,,,,,,,,,,,,,,,,,,,,,,,,,,,,,,
0.0,9.28224380913889e-06,3.0682055950164795,0.7498660802841186,-4.736076880362816e-05,-0.0255340319126844,0.3053503632545471,-2.100436358887237e-05,0.0349734649062156,0.2165542244911193,0.0,3.057718276977539,0.6963874816894531,-0.1917510479688644,13.5,0.0,3.401041030883789,-0.4043910980224609,0.0,14.5,0.0,3.5419464111328125,-0.4866455078125,0.0,12.25,0.0,2.9954910278320312,0.6781484603881835,0.0,22.25,0.0,3.0280351638793945,0.6520416259765625,0.0,23.5,0.0,3.1353235244750977,0.5494024276733398,0.0,17.75,,,,,,,,,,,,,,,
0.0,9.28224380913889e-06,3.0682055950164795,0.7498660802841186,-4.736076880362816e-05,-0.0255340319126844,0.3053503632545471,-2.100436358887237e-05,0.0349734649062156,0.2165542244911193,0.0,3.397822380065918,-0.39652328491210936,0.0,15.75,0.0,3.508329391479492,-0.5367134094238282,0.0,12.75,,,,,,,,,,,,,,,,,,,,,,,,,,,,,,,,,,,
0.0,9.28224380913889e-06,3.0682055950164795,0.7498660802841186,-4.736076880362816e-05,-0.0255340319126844,0.3053503632545471,-2.100436358887237e-05,0.0349734649062156,0.2165542244911193,0.0,3.423929214477539,-0.4237030029296875,0.0,17.5,0.0,3.5222768783569336,-0.4662607192993164,0.0,15.0,,,,,,,,,,,,,,,,,,,,,,,,,,,,,,,,,,,
0.0,9.071125532500446e-06,3.0626654624938965,0.7559092760086059,-4.753260873258114e-05,-0.0344663932919502,0.3114584386348724,-2.1073192328913137e-05,0.0260127782821655,0.2190187722444534,0.0,2.86245346069336,0.9381439208984375,-0.1917510479688644,15.25,0.0,2.9175281524658203,0.9338523864746093,-0.1917510479688644,13.25,0.0,3.422856330871582,-0.4129741668701172,0.0,18.0,0.0,3.5390853881835938,-0.3511045455932617,0.0,14.5,0.0,3.1478404998779297,0.5626346588134765,0.0,19.25,0.0,2.900362014770508,0.7725622177124023,0.0,15.75,0.0,2.9747486114501958,0.7064010620117187,0.0,24.5,,,,,,,,,,
0.0,9.071125532500446e-06,3.0626654624938965,0.7559092760086059,-4.753260873258114e-05,-0.0344663932919502,0.3114584386348724,-2.1073192328913137e-05,0.0260127782821655,0.2190187722444534,0.0,3.419637680053711,-0.430497932434082,0.0,17.0,0.0,3.5272836685180664,-0.4655454635620117,0.0,14.25,0.0,3.1507015228271484,0.5476142883300781,0.0,18.75,,,,,,,,,,,,,,,,,,,,,,,,,,,,,,
0.0,9.071125532500446e-06,3.0626654624938965,0.7559092760086059,-4.753260873258114e-05,-0.0344663932919502,0.3114584386348724,-2.1073192328913137e-05,0.0260127782821655,0.2190187722444534,0.0,3.407120704650879,-0.5134675979614258,0.0,17.25,0.0,3.524422645568848,-0.5013082504272461,0.0,15.0,0.0,3.1585693359375,0.5472566604614257,0.0,19.0,,,,,,,,,,,,,,,,,,,,,,,,,,,,,,
0.0,9.071125532500446e-06,3.0626654624938965,0.7559092760086059,-4.753260873258114e-05,-0.0344663932919502,0.3114584386348724,-2.1073192328913137e-05,0.0260127782821655,0.2190187722444534,,,,,,,,,,,,,,,,,,,,,,,,,,,,,,,,,,,,,,,,,,,,,
0.0,9.071125532500446e-06,3.0626654624938965,0.7559092760086059,-4.753260873258114e-05,-0.0344663932919502,0.3114584386348724,-2.1073192328913137e-05,0.0260127782821655,0.2190187722444534,,,,,,,,,,,,,,,,,,,,,,,,,,,,,,,,,,,,,,,,,,,,,
0.0,9.071125532500446e-06,3.0626654624938965,0.7559092760086059,-4.753260873258114e-05,-0.0344663932919502,0.3114584386348724,-2.1073192328913137e-05,0.0260127782821655,0.2190187722444534,,,,,,,,,,,,,,,,,,,,,,,,,,,,,,,,,,,,,,,,,,,,,
0.0,9.071125532500446e-06,3.0626654624938965,0.7559092760086059,-4.753260873258114e-05,-0.0344663932919502,0.3114584386348724,-2.1073192328913137e-05,0.0260127782821655,0.2190187722444534,,,,,,,,,,,,,,,,,,,,,,,,,,,,,,,,,,,,,,,,,,,,,
0.0,9.071125532500446e-06,3.0626654624938965,0.7559092760086059,-4.753260873258114e-05,-0.0344663932919502,0.3114584386348724,-2.1073192328913137e-05,0.0260127782821655,0.2190187722444534,,,,,,,,,,,,,,,,,,,,,,,,,,,,,,,,,,,,,,,,,,,,,
0.0,9.071125532500446e-06,3.0626654624938965,0.7559092760086059,-4.753260873258114e-05,-0.0344663932919502,0.3114584386348724,-2.1073192328913137e-05,0.0260127782821655,0.2190187722444534,,,,,,,,,,,,,,,,,,,,,,,,,,,,,,,,,,,,,,,,,,,,,
0.0,8.770087333687115e-06,3.059910297393799,0.754283320903778,-4.773389446199872e-05,-0.035487812012434,0.3096607327461242,-2.1143085177754983e-05,0.0278532933443784,0.2181649804115295,0.0,2.9321908950805664,0.7350112915039062,0.1917510479688644,15.0,0.0,2.9894113540649414,0.6906654357910156,-0.1917510479688644,14.0,0.0,3.42714786529541,-0.5581710815429688,0.0,20.0,0.0,3.001570701599121,0.6799365997314453,0.0,21.75,,,,,,,,,,,,,,,,,,,,,,,,,
0.0,8.770087333687115e-06,3.059910297393799,0.754283320903778,-4.773389446199872e-05,-0.035487812012434,0.3096607327461242,-2.1143085177754983e-05,0.0278532933443784,0.2181649804115295,0.0,3.4199953079223637,-0.6225440979003907,0.0,20.0,0.0,3.510117530822754,-0.5581710815429688,0.0,18.25,,,,,,,,,,,,,,,,,,,,,,,,,,,,,,,,,,,
0.0,8.54603058542125e-06,3.0596725940704346,0.7441993474960327,-4.79751979582943e-05,-0.0389565452933311,0.2941029369831085,-2.1260662833810784e-05,0.0217067003250122,0.2057754844427108,0.0,3.03804874420166,0.4692937850952148,-0.1917510479688644,13.0,0.0,3.0652284622192383,0.4954006195068359,-0.1917510479688644,15.5,0.0,3.1528472900390625,0.521507453918457,0.0,20.25,,,,,,,,,,,,,,,,,,,,,,,,,,,,,,
0.0,8.54603058542125e-06,3.0596725940704346,0.7441993474960327,-4.79751979582943e-05,-0.0389565452933311,0.2941029369831085,-2.1260662833810784e-05,0.0217067003250122,0.2057754844427108,0.0,3.130674362182617,0.6824399948120117,0.0,20.25,,,,,,,,,,,,,,,,,,,,,,,,,,,,,,,,,,,,,,,,
0.0,8.54603058542125e-06,3.0596725940704346,0.7441993474960327,-4.79751979582943e-05,-0.0389565452933311,0.2941029369831085,-2.1260662833810784e-05,0.0217067003250122,0.2057754844427108,0.0,3.134608268737793,0.6513263702392578,0.0,20.0,,,,,,,,,,,,,,,,,,,,,,,,,,,,,,,,,,,,,,,,
0.0,8.54603058542125e-06,3.0596725940704346,0.7441993474960327,-4.79751979582943e-05,-0.0389565452933311,0.2941029369831085,-2.1260662833810784e-05,0.0217067003250122,0.2057754844427108,,,,,,,,,,,,,,,,,,,,,,,,,,,,,,,,,,,,,,,,,,,,,
0.0,8.54603058542125e-06,3.0596725940704346,0.7441993474960327,-4.79751979582943e-05,-0.0389565452933311,0.2941029369831085,-2.1260662833810784e-05,0.0217067003250122,0.2057754844427108,,,,,,,,,,,,,,,,,,,,,,,,,,,,,,,,,,,,,,,,,,,,,
0.0,8.54603058542125e-06,3.0596725940704346,0.7441993474960327,-4.79751979582943e-05,-0.0389565452933311,0.2941029369831085,-2.1260662833810784e-05,0.0217067003250122,0.2057754844427108,,,,,,,,,,,,,,,,,,,,,,,,,,,,,,,,,,,,,,,,,,,,,
0.0,8.54603058542125e-06,3.0596725940704346,0.7441993474960327,-4.79751979582943e-05,-0.0389565452933311,0.2941029369831085,-2.1260662833810784e-05,0.0217067003250122,0.2057754844427108,0.0,3.517985343933105,-0.40296058654785155,0.0,15.5,,,,,,,,,,,,,,,,,,,,,,,,,,,,,,,,,,,,,,,,
0.0,8.54603058542125e-06,3.0596725940704346,0.7441993474960327,-4.79751979582943e-05,-0.0389565452933311,0.2941029369831085,-2.1260662833810784e-05,0.0217067003250122,0.2057754844427108,0.0,3.1489133834838867,0.4896785736083984,0.0,18.0,0.0,2.983331680297852,0.671353530883789,0.0,24.75,0.0,3.014445304870605,0.6127025604248046,0.0,25.5,0.0,2.8939247131347656,0.7815029144287109,0.0,16.5,,,,,,,,,,,,,,,,,,,,,,,,,
0.0,8.54603058542125e-06,3.0596725940704346,0.7441993474960327,-4.79751979582943e-05,-0.0389565452933311,0.2941029369831085,-2.1260662833810784e-05,0.0217067003250122,0.2057754844427108,0.0,3.0105113983154297,0.6019737243652343,0.0,23.5,0.0,3.152132034301758,0.5608465194702148,0.0,16.0,0.0,2.966880798339844,0.692095947265625,0.0,23.5,,,,,,,,,,,,,,,,,,,,,,,,,,,,,,
0.0,8.54603058542125e-06,3.0596725940704346,0.7441993474960327,-4.79751979582943e-05,-0.0389565452933311,0.2941029369831085,-2.1260662833810784e-05,0.0217067003250122,0.2057754844427108,0.0,3.2275915145874023,0.20071525573730462,0.0,16.0,0.0,3.0112266540527344,0.601616096496582,0.0,22.5,0.0,2.9658079147338867,0.6820823669433593,0.0,22.75,,,,,,,,,,,,,,,,,,,,,,,,,,,,,,
0.0,8.444831109954976e-06,3.058685779571533,0.7430052280426025,-4.80771777802147e-05,-0.0416085347533226,0.2916080951690674,-2.1308340365067124e-05,0.018140884116292,0.2032910585403442,0.0,3.001570701599121,0.693168830871582,-0.1917510479688644,12.75,0.0,3.1735897064208984,0.3670122146606445,0.0,18.0,0.0,2.9854774475097656,0.6363059997558593,0.0,24.5,0.0,3.0112266540527344,0.6262924194335937,0.0,24.75,0.0,2.910017967224121,0.7028247833251953,0.0,16.0,,,,,,,,,,,,,,,,,,,,
0.0,8.444831109954976e-06,3.058685779571533,0.7430052280426025,-4.80771777802147e-05,-0.0416085347533226,0.2916080951690674,-2.1308340365067124e-05,0.018140884116292,0.2032910585403442,0.0,3.220796585083008,0.2776052474975586,0.0,17.75,0.0,2.990126609802246,0.6019737243652343,0.0,24.0,0.0,3.023386001586914,0.5576278686523437,0.0,24.5,0.0,2.895712852478028,0.7453824996948242,0.0,16.0,,,,,,,,,,,,,,,,,,,,,,,,,
0.0,8.444831109954976e-06,3.058685779571533,0.7430052280426025,-4.80771777802147e-05,-0.0416085347533226,0.2916080951690674,-2.1308340365067124e-05,0.018140884116292,0.2032910585403442,0.0,3.4983158111572266,-0.49630146026611327,0.0,17.25,0.0,3.189682960510254,0.3970529556274414,0.0,18.0,0.0,2.9844045639038086,0.6591941833496093,0.0,23.25,0.0,3.0312538146972656,0.5880262374877929,0.0,24.25,0.0,2.88248062133789,0.7893707275390625,0.0,15.5,,,,,,,,,,,,,,,,,,,,
0.0,8.444831109954976e-06,3.058685779571533,0.7430052280426025,-4.80771777802147e-05,-0.0416085347533226,0.2916080951690674,-2.1308340365067124e-05,0.018140884116292,0.2032910585403442,0.0,3.428220748901367,-0.4827116012573242,0.0,19.5,0.0,3.4950971603393555,-0.5070302963256836,0.0,17.25,0.0,3.1821727752685547,0.3763105392456054,0.0,18.25,0.0,2.9926300048828125,0.6066228866577148,0.0,24.5,0.0,3.0226707458496094,0.5844499588012695,0.0,25.0,0.0,2.891421318054199,0.7693435668945312,0.0,16.0,,,,,,,,,,,,,,,
0.0,8.444831109954976e-06,3.058685779571533,0.7430052280426025,-4.80771777802147e-05,-0.0416085347533226,0.2916080951690674,-2.1308340365067124e-05,0.018140884116292,0.2032910585403442,0.0,3.442525863647461,-0.4769895553588867,0.0,19.75,0.0,3.5004615783691406,-0.49057941436767577,0.0,17.25,0.0,3.188610076904297,0.4392530441284179,0.0,17.5,0.0,2.9801130294799805,0.6534721374511718,0.0,23.5,0.0,3.014802932739258,0.6309415817260742,0.0,24.0,0.0,2.880334854125977,0.798311424255371,0.0,16.0,,,,,,,,,,,,,,,
0.0,8.444831109954976e-06,3.058685779571533,0.7430052280426025,-4.80771777802147e-05,-0.0416085347533226,0.2916080951690674,-2.1308340365067124e-05,0.018140884116292,0.2032910585403442,0.0,3.228306770324707,0.2268220901489257,0.0,17.75,0.0,3.005862236022949,0.5626346588134765,0.0,21.75,0.0,3.046274185180664,0.5311634063720703,0.0,23.0,,,,,,,,,,,,,,,,,,,,,,,,,,,,,,
0.0,8.444831109954976e-06,3.058685779571533,0.7430052280426025,-4.80771777802147e-05,-0.0416085347533226,0.2916080951690674,-2.1308340365067124e-05,0.018140884116292,0.2032910585403442,0.0,3.429293632507324,-0.4440877914428711,0.0,18.0,0.0,3.520846366882324,-0.43800811767578124,0.0,15.75,0.0,3.177523612976074,0.4253055572509765,0.0,17.5,0.0,2.9883384704589844,0.6481077194213867,0.0,23.25,0.0,3.0258893966674805,0.6048347473144531,0.0,24.25,0.0,2.888202667236328,0.7557537078857421,0.0,15.25,,,,,,,,,,,,,,,
0.0,8.444831109954976e-06,3.058685779571533,0.7430052280426025,-4.80771777802147e-05,-0.0416085347533226,0.2916080951690674,-2.1308340365067124e-05,0.018140884116292,0.2032910585403442,0.0,3.4171342849731445,-0.453386116027832,0.0,18.75,0.0,3.5022497177124023,-0.4612539291381836,0.0,16.75,0.0,3.203272819519043,0.280108642578125,0.0,19.0,0.0,2.983331680297852,0.6684925079345703,0.0,24.25,0.0,3.0308961868286133,0.5826618194580078,0.0,25.0,0.0,2.888917922973633,0.7686283111572265,0.0,16.25,,,,,,,,,,,,,,,
0.0,8.444831109954976e-06,3.058685779571533,0.7430052280426025,-4.80771777802147e-05,-0.0416085347533226,0.2916080951690674,-2.1308340365067124e-05,0.018140884116292,0.2032910585403442,0.0,3.424644470214844,-0.3986690521240234,0.0,18.25,0.0,3.199338912963867,0.3201629638671875,0.0,19.0,0.0,3.040194511413574,0.5594160079956054,0.0,24.0,0.0,2.86710262298584,0.8287097930908203,0.0,16.75,0.0,2.957940101623535,0.7307197570800781,0.0,24.0,,,,,,,,,,,,,,,,,,,,
0.0,8.444831109954976e-06,3.058685779571533,0.7430052280426025,-4.80771777802147e-05,-0.0416085347533226,0.2916080951690674,-2.1308340365067124e-05,0.018140884116292,0.2032910585403442,0.0,3.4149885177612305,-0.4923675537109375,0.0,17.75,0.0,3.5254955291748047,-0.4730556488037109,0.0,15.75,0.0,3.179311752319336,0.4818107604980469,0.0,18.0,0.0,2.981185913085937,0.6613399505615234,0.0,22.25,0.0,3.045201301574707,0.5747940063476562,0.0,23.5,0.0,2.849578857421875,0.8562471389770507,0.0,16.0,,,,,,,,,,,,,,,
0.0,8.444831109954976e-06,3.058685779571533,0.7430052280426025,-4.80771777802147e-05,-0.0416085347533226,0.2916080951690674,-2.1308340365067124e-05,0.018140884116292,0.2032910585403442,0.0,3.3777952194213867,-0.41941146850585936,0.0,13.5,0.0,3.1435489654541016,0.4911090850830078,0.0,18.0,0.0,3.032684326171875,0.6591941833496093,0.0,24.0,0.0,2.975106239318848,0.7393028259277343,0.0,22.75,0.0,2.856731414794922,0.8676912307739257,0.0,15.25,,,,,,,,,,,,,,,,,,,,
0.0,8.444831109954976e-06,3.058685779571533,0.7430052280426025,-4.80771777802147e-05,-0.0416085347533226,0.2916080951690674,-2.1308340365067124e-05,0.018140884116292,0.2032910585403442,0.0,3.387093544006348,-0.45124034881591796,0.0,15.5,0.0,3.529071807861328,-0.5077455520629883,0.0,13.0,0.0,3.149271011352539,0.4199411392211914,0.0,18.5,0.0,3.0226707458496094,0.6216432571411132,0.0,25.25,0.0,2.970457077026367,0.740018081665039,0.0,24.75,0.0,2.870321273803711,0.8558895111083984,0.0,16.75,,,,,,,,,,,,,,,
0.0,8.444831109954976e-06,3.058685779571533,0.7430052280426025,-4.80771777802147e-05,-0.0416085347533226,0.2916080951690674,-2.1308340365067124e-05,0.018140884116292,0.2032910585403442,0.0,3.382444381713867,-0.453386116027832,0.0,15.75,0.0,3.51870059967041,-0.507387924194336,0.0,13.25,0.0,3.14176082611084,0.4564191818237304,0.0,19.25,0.0,3.0101537704467773,0.6663467407226562,0.0,26.25,0.0,2.880334854125977,0.843014907836914,0.0,17.75,0.0,2.966880798339844,0.7496740341186523,0.0,26.25,,,,,,,,,,,,,,,
0.0,8.108359907055274e-06,3.0574371814727783,0.7409842133522033,-4.826948861591518e-05,-0.0371666513383388,0.2911900281906128,-2.136520743079018e-05,0.0280267819762229,0.2050579786300659,0.0,2.97403335571289,0.6720687866210937,0.1917510479688644,13.0,0.0,3.0030012130737305,0.659909439086914,0.1917510479688644,13.5,0.0,3.467559814453125,-0.719818878173828,0.0,12.75,0.0,3.340601921081543,-0.5524490356445313,0.0,15.25,0.0,3.096342086791992,0.5769397735595703,0.0,20.75,0.0,2.8864145278930664,0.8548166275024414,0.0,19.25,0.0,2.966880798339844,0.763979148864746,0.0,28.25,0.0,2.995133399963379,0.7021095275878906,0.0,28.5,,,,,
0.0,8.108359907055274e-06,3.0574371814727783,0.7409842133522033,-4.826948861591518e-05,-0.0371666513383388,0.2911900281906128,-2.136520743079018e-05,0.0280267819762229,0.2050579786300659,0.0,3.4879446029663086,-0.6025169372558594,0.0,13.0,0.0,3.355264663696289,-0.5342100143432618,0.0,15.75,0.0,3.000140190124512,0.6745721817016601,0.0,28.5,0.0,3.099203109741211,0.5501176834106445,0.0,20.5,,,,,,,,,,,,,,,,,,,,,,,,,
0.0,8.108359907055274e-06,3.0574371814727783,0.7409842133522033,-4.826948861591518e-05,-0.0371666513383388,0.2911900281906128,-2.136520743079018e-05,0.0280267819762229,0.2050579786300659,0.0,3.3545494079589844,-0.6157491683959961,0.0,15.25,0.0,3.453969955444336,-0.7226799011230467,0.0,12.25,0.0,3.0891895294189453,0.5894567489624023,0.0,20.25,,,,,,,,,,,,,,,,,,,,,,,,,,,,,,
0.0,8.108359907055274e-06,3.0574371814727783,0.7409842133522033,-4.826948861591518e-05,-0.0371666513383388,0.2911900281906128,-2.136520743079018e-05,0.0280267819762229,0.2050579786300659,0.0,3.356337547302246,-0.6243322372436524,0.0,15.25,0.0,3.472208976745605,-0.6425712585449219,0.0,13.0,,,,,,,,,,,,,,,,,,,,,,,,,,,,,,,,,,,
0.0,8.108359907055274e-06,3.0574371814727783,0.7409842133522033,-4.826948861591518e-05,-0.0371666513383388,0.2911900281906128,-2.136520743079018e-05,0.0280267819762229,0.2050579786300659,0.0,3.3692121505737305,-0.6336305618286133,0.0,14.5,0.0,3.482222557067871,-0.6375644683837891,0.0,12.75,,,,,,,,,,,,,,,,,,,,,,,,,,,,,,,,,,,
0.0,8.108359907055274e-06,3.0574371814727783,0.7409842133522033,-4.826948861591518e-05,-0.0371666513383388,0.2911900281906128,-2.136520743079018e-05,0.0280267819762229,0.2050579786300659,0.0,3.383159637451172,-0.6025169372558594,0.0,14.5,0.0,3.48508358001709,-0.6296966552734375,0.0,12.5,,,,,,,,,,,,,,,,,,,,,,,,,,,,,,,,,,,
0.0,8.108359907055274e-06,3.0574371814727783,0.7409842133522033,-4.826948861591518e-05,-0.0371666513383388,0.2911900281906128,-2.136520743079018e-05,0.0280267819762229,0.2050579786300659,0.0,3.366708755493164,-0.5320642471313477,0.0,13.25,,,,,,,,,,,,,,,,,,,,,,,,,,,,,,,,,,,,,,,,
0.0,8.108359907055274e-06,3.0574371814727783,0.7409842133522033,-4.826948861591518e-05,-0.0371666513383388,0.2911900281906128,-2.136520743079018e-05,0.0280267819762229,0.2050579786300659,0.0,2.945423126220703,0.8140470504760742,0.0,25.5,0.0,2.8706789016723637,0.888791275024414,0.0,17.5,,,,,,,,,,,,,,,,,,,,,,,,,,,,,,,,,,,
0.0,8.108359907055274e-06,3.0574371814727783,0.7409842133522033,-4.826948861591518e-05,-0.0371666513383388,0.2911900281906128,-2.136520743079018e-05,0.0280267819762229,0.2050579786300659,0.0,3.1270980834960938,0.5093481063842773,0.0,15.25,0.0,2.888917922973633,0.7936622619628906,0.0,15.0,0.0,2.9489994049072266,0.7686283111572265,0.0,23.0,0.0,2.981901168823242,0.7335807800292968,0.0,22.5,,,,,,,,,,,,,,,,,,,,,,,,,
0.0,8.108359907055274e-06,3.0574371814727783,0.7409842133522033,-4.826948861591518e-05,-0.0371666513383388,0.2911900281906128,-2.136520743079018e-05,0.0280267819762229,0.2050579786300659,0.0,3.026962280273437,0.6835128784179687,0.0,22.0,0.0,3.131389617919922,0.5987550735473632,0.0,16.5,0.0,2.8688907623291016,0.8444454193115234,0.0,13.25,0.0,2.9801130294799805,0.6978179931640625,0.0,21.25,,,,,,,,,,,,,,,,,,,,,,,,,
0.0,8.108359907055274e-06,3.0574371814727783,0.7409842133522033,-4.826948861591518e-05,-0.0371666513383388,0.2911900281906128,-2.136520743079018e-05,0.0280267819762229,0.2050579786300659,0.0,3.393888473510742,-0.5002353668212891,0.0,14.0,0.0,3.101348876953125,0.6856586456298828,0.0,18.75,0.0,2.879977226257324,0.8462335586547851,0.0,16.25,0.0,2.967953681945801,0.7725622177124023,0.0,24.5,0.0,3.0051469802856445,0.7468130111694335,0.0,25.25,,,,,,,,,,,,,,,,,,,,
0.0,8.108359907055274e-06,3.0574371814727783,0.7409842133522033,-4.826948861591518e-05,-0.0371666513383388,0.2911900281906128,-2.136520743079018e-05,0.0280267819762229,0.2050579786300659,0.0,3.3985376358032227,-0.5088184356689454,0.0,13.5,0.0,2.88999080657959,0.7950927734375,0.0,16.0,0.0,2.971529960632324,0.7557537078857421,0.0,24.5,0.0,3.007650375366211,0.7339384078979492,0.0,25.25,0.0,3.088831901550293,0.7010366439819335,0.0,18.75,,,,,,,,,,,,,,,,,,,,
0.0,8.108359907055274e-06,3.0574371814727783,0.7409842133522033,-4.826948861591518e-05,-0.0371666513383388,0.2911900281906128,-2.136520743079018e-05,0.0280267819762229,0.2050579786300659,0.0,3.403186798095703,-0.4548166275024414,0.0,16.25,0.0,3.1135082244873047,0.6638433456420898,0.0,20.25,0.0,2.899289131164551,0.7782842636108398,0.0,17.25,0.0,2.9768943786621094,0.7214214324951171,0.0,26.0,0.0,3.0080080032348637,0.7289316177368164,0.0,26.5,,,,,,,,,,,,,,,,,,,,
0.0,8.108359907055274e-06,3.0574371814727783,0.7409842133522033,-4.826948861591518e-05,-0.0371666513383388,0.2911900281906128,-2.136520743079018e-05,0.0280267819762229,0.2050579786300659,0.0,3.384232521057129,-0.5034540176391602,0.0,17.0,0.0,3.507256507873535,-0.5492303848266602,0.0,14.5,0.0,3.1031370162963867,0.6924535751342773,0.0,21.75,0.0,2.9071569442749023,0.7621910095214843,0.0,17.0,0.0,2.990126609802246,0.7164146423339843,0.0,26.25,0.0,3.0226707458496094,0.7189180374145507,0.0,27.5,,,,,,,,,,,,,,,
0.0,8.108359907055274e-06,3.0574371814727783,0.7409842133522033,-4.826948861591518e-05,-0.0371666513383388,0.2911900281906128,-2.136520743079018e-05,0.0280267819762229,0.2050579786300659,0.0,3.384590148925781,-0.47555904388427733,0.0,16.75,0.0,3.0988454818725586,0.6924535751342773,0.0,21.25,0.0,2.905726432800293,0.761833381652832,0.0,17.0,0.0,2.9904842376708984,0.694241714477539,0.0,26.25,0.0,3.016948699951172,0.7121231079101562,0.0,27.5,,,,,,,,,,,,,,,,,,,,
0.0,8.108359907055274e-06,3.0574371814727783,0.7409842133522033,-4.826948861591518e-05,-0.0371666513383388,0.2911900281906128,-2.136520743079018e-05,0.0280267819762229,0.2050579786300659,0.0,2.9969215393066406,0.6688501358032226,0.0,24.75,0.0,3.1224489212036133,0.6363059997558593,0.0,20.5,0.0,3.026604652404785,0.6974603652954101,0.0,26.5,0.0,2.8738975524902344,0.8566047668457031,0.0,16.25,,,,,,,,,,,,,,,,,,,,,,,,,
0.0,8.108359907055274e-06,3.0574371814727783,0.7409842133522033,-4.826948861591518e-05,-0.0371666513383388,0.2911900281906128,-2.136520743079018e-05,0.0280267819762229,0.2050579786300659,0.0,3.406405448913574,-0.36612491607666015,0.0,17.25,0.0,2.995848655700684,0.6670619964599609,0.0,25.0,0.0,3.1260251998901367,0.6441738128662109,0.0,20.75,0.0,2.9000043869018555,0.7625486373901367,0.0,16.25,0.0,3.0237436294555664,0.7038976669311523,0.0,26.5,,,,,,,,,,,,,,,,,,,,
0.0,8.108359907055274e-06,3.0574371814727783,0.7409842133522033,-4.826948861591518e-05,-0.0371666513383388,0.2911900281906128,-2.136520743079018e-05,0.0280267819762229,0.2050579786300659,0.0,3.1238794326782227,0.6237890243530273,0.0,19.5,0.0,2.877116203308105,0.8415843963623046,0.0,17.75,0.0,2.961874008178711,0.7611181259155273,0.0,25.75,0.0,2.9987096786499023,0.7317926406860351,0.0,26.5,,,,,,,,,,,,,,,,,,,,,,,,,
0.0,8.108359907055274e-06,3.0574371814727783,0.7409842133522033,-4.826948861591518e-05,-0.0371666513383388,0.2911900281906128,-2.136520743079018e-05,0.0280267819762229,0.2050579786300659,0.0,3.128170967102051,0.5801584243774414,0.0,18.25,0.0,2.90071964263916,0.7571842193603515,0.0,16.5,0.0,2.9736757278442383,0.7035400390625,0.0,25.5,0.0,2.995848655700684,0.6945993423461914,0.0,25.75,,,,,,,,,,,,,,,,,,,,,,,,,
0.0,8.108359907055274e-06,3.0574371814727783,0.7409842133522033,-4.826948861591518e-05,-0.0371666513383388,0.2911900281906128,-2.136520743079018e-05,0.0280267819762229,0.2050579786300659,,,,,,,,,,,,,,,,,,,,,,,,,,,,,,,,,,,,,,,,,,,,,
0.0,8.108359907055274e-06,3.0574371814727783,0.7409842133522033,-4.826948861591518e-05,-0.0371666513383388,0.2911900281906128,-2.136520743079018e-05,0.0280267819762229,0.2050579786300659,,,,,,,,,,,,,,,,,,,,,,,,,,,,,,,,,,,,,,,,,,,,,
0.0,8.108359907055274e-06,3.0574371814727783,0.7409842133522033,-4.826948861591518e-05,-0.0371666513383388,0.2911900281906128,-2.136520743079018e-05,0.0280267819762229,0.2050579786300659,0.0,3.4378767013549805,-0.3797147750854492,0.0,14.75,0.0,3.5240650177001958,-0.5452964782714844,0.0,12.25,0.0,2.9407739639282227,0.8337165832519531,0.0,25.5,0.0,2.9604434967041016,0.8383657455444335,0.0,25.5,0.0,3.0813217163085938,0.7793571472167968,0.0,17.25,,,,,,,,,,,,,,,,,,,,
0.0,8.108359907055274e-06,3.0574371814727783,0.7409842133522033,-4.826948861591518e-05,-0.0371666513383388,0.2911900281906128,-2.136520743079018e-05,0.0280267819762229,0.2050579786300659,0.0,3.427863121032715,-0.4802082061767578,0.0,13.5,0.0,2.8792619705200195,0.8029605865478515,0.0,15.5,0.0,2.956509590148926,0.7904436111450195,0.0,23.75,0.0,2.977609634399414,0.8176233291625976,0.0,24.5,0.0,3.064155578613281,0.8848573684692382,0.0,17.0,,,,,,,,,,,,,,,,,,,,
0.0,8.108359907055274e-06,3.0574371814727783,0.7409842133522033,-4.826948861591518e-05,-0.0371666513383388,0.2911900281906128,-2.136520743079018e-05,0.0280267819762229,0.2050579786300659,0.0,3.43179702758789,-0.5967948913574219,0.0,13.75,0.0,3.477931022644043,-0.7044408798217772,0.0,13.0,0.0,2.8706789016723637,0.8226301193237304,0.0,14.75,0.0,2.9332637786865234,0.8712675094604492,0.0,23.0,0.0,2.9507875442504883,0.9113218307495117,0.0,23.5,0.0,3.051638603210449,0.9874965667724609,0.0,15.75,,,,,,,,,,,,,,,
0.0,8.108359907055274e-06,3.0574371814727783,0.7409842133522033,-4.826948861591518e-05,-0.0371666513383388,0.2911900281906128,-2.136520743079018e-05,0.0280267819762229,0.2050579786300659,0.0,3.425002098083496,-0.6590221405029297,0.0,13.75,0.0,3.471493721008301,-0.7412765502929688,0.0,13.25,0.0,2.871036529541016,0.8136894226074218,0.0,14.5,0.0,2.943277359008789,0.8340742111206054,0.0,22.5,0.0,2.9622316360473637,0.8601810455322265,0.0,23.0,0.0,3.0548572540283203,0.9842779159545898,0.0,15.25,,,,,,,,,,,,,,,
0.0,8.108359907055274e-06,3.0574371814727783,0.7409842133522033,-4.826948861591518e-05,-0.0371666513383388,0.2911900281906128,-2.136520743079018e-05,0.0280267819762229,0.2050579786300659,0.0,3.417491912841797,-0.6919239044189454,0.0,15.0,0.0,3.448963165283203,-0.8002851486206057,0.0,14.25,0.0,2.919316291809082,0.693168830871582,0.0,12.75,0.0,2.989053726196289,0.7457401275634765,0.0,23.25,0.0,2.992987632751465,0.763979148864746,0.0,24.5,0.0,3.0645132064819336,0.8226301193237304,0.0,16.75,,,,,,,,,,,,,,,
0.0,8.108359907055274e-06,3.0574371814727783,0.7409842133522033,-4.826948861591518e-05,-0.0371666513383388,0.2911900281906128,-2.136520743079018e-05,0.0280267819762229,0.2050579786300659,0.0,3.437161445617676,-0.5835626602172852,0.0,14.5,0.0,3.5001039505004883,-0.5985830307006836,0.0,13.0,0.0,2.9010772705078125,0.6642009735107421,0.0,12.25,0.0,2.95257568359375,0.8101131439208984,0.0,21.0,,,,,,,,,,,,,,,,,,,,,,,,,
0.0,8.108359907055274e-06,3.0574371814727783,0.7409842133522033,-4.826948861591518e-05,-0.0371666513383388,0.2911900281906128,-2.136520743079018e-05,0.0280267819762229,0.2050579786300659,0.0,3.4332275390625,-0.621828842163086,0.0,15.25,0.0,3.478646278381348,-0.6282661437988282,0.0,13.5,0.0,2.8839111328125,0.7568265914916992,0.0,13.0,0.0,3.076314926147461,0.8848573684692382,0.0,14.25,,,,,,,,,,,,,,,,,,,,,,,,,
0.0,8.108359907055274e-06,3.0574371814727783,0.7409842133522033,-4.826948861591518e-05,-0.0371666513383388,0.2911900281906128,-2.136520743079018e-05,0.0280267819762229,0.2050579786300659,0.0,2.960085868835449,0.8655454635620117,0.0,22.0,0.0,3.0527114868164062,0.8680488586425781,0.0,14.0,,,,,,,,,,,,,,,,,,,,,,,,,,,,,,,,,,,
0.0,8.108359907055274e-06,3.0574371814727783,0.7409842133522033,-4.826948861591518e-05,-0.0371666513383388,0.2911900281906128,-2.136520743079018e-05,0.0280267819762229,0.2050579786300659,0.0,3.4335851669311523,-0.4415843963623047,0.0,14.75,0.0,3.5097599029541016,-0.5256269454956055,0.0,13.0,0.0,3.0115842819213867,0.6295110702514648,0.0,21.25,0.0,3.151774406433105,0.5261566162109375,0.0,14.75,0.0,2.901792526245117,0.6992485046386718,0.0,12.5,0.0,2.9747486114501958,0.6913806915283203,0.0,21.25,,,,,,,,,,,,,,,
0.0,8.108359907055274e-06,3.0574371814727783,0.7409842133522033,-4.826948861591518e-05,-0.0371666513383388,0.2911900281906128,-2.136520743079018e-05,0.0280267819762229,0.2050579786300659,0.0,3.45611572265625,-0.45767765045166015,0.0,16.0,0.0,3.50332260131836,-0.5116794586181641,0.0,14.0,0.0,2.9801130294799805,0.6634857177734375,0.0,20.75,0.0,2.8978586196899414,0.6770755767822265,0.0,12.5,0.0,2.997279167175293,0.8015300750732421,0.0,21.25,0.0,3.11136245727539,0.8308555603027343,0.0,15.75,,,,,,,,,,,,,,,
0.0,8.108359907055274e-06,3.0574371814727783,0.7409842133522033,-4.826948861591518e-05,-0.0371666513383388,0.2911900281906128,-2.136520743079018e-05,0.0280267819762229,0.2050579786300659,0.0,3.4782886505126958,-0.6472204208374024,0.0,14.75,0.0,3.452181816101074,-0.5245540618896485,0.0,16.0,0.0,2.989053726196289,0.6470348358154296,0.0,20.75,0.0,2.8935670852661133,0.6885196685791015,0.0,12.75,0.0,3.016233444213867,0.7593299865722656,0.0,22.0,0.0,3.082394599914551,0.9159709930419921,0.0,17.0,,,,,,,,,,,,,,,
0.0,8.108359907055274e-06,3.0574371814727783,0.7409842133522033,-4.826948861591518e-05,-0.0371666513383388,0.2911900281906128,-2.136520743079018e-05,0.0280267819762229,0.2050579786300659,0.0,3.488302230834961,-0.42584877014160155,0.0,19.75,0.0,3.497242927551269,-0.41047077178955077,0.0,16.75,0.0,2.877473831176758,0.74931640625,0.0,13.75,0.0,2.9593706130981445,0.7414485931396484,0.0,21.0,0.0,3.0008554458618164,0.7772113800048828,0.0,21.75,0.0,3.144979476928711,0.8061792373657226,0.0,16.0,,,,,,,,,,,,,,,
0.0,8.108359907055274e-06,3.0574371814727783,0.7409842133522033,-4.826948861591518e-05,-0.0371666513383388,0.2911900281906128,-2.136520743079018e-05,0.0280267819762229,0.2050579786300659,0.0,3.484725952148437,-0.48378448486328124,0.0,21.0,0.0,2.884984016418457,0.7553960800170898,0.0,13.5,0.0,2.964019775390625,0.7714893341064453,0.0,21.75,0.0,2.9915571212768555,0.8122589111328125,0.0,22.75,0.0,3.143906593322754,0.7958080291748046,0.0,16.5,,,,,,,,,,,,,,,,,,,,
0.0,8.108359907055274e-06,3.0574371814727783,0.7409842133522033,-4.826948861591518e-05,-0.0371666513383388,0.2911900281906128,-2.136520743079018e-05,0.0280267819762229,0.2050579786300659,0.0,2.881050109863281,0.7940198898315429,0.0,15.25,0.0,2.9511451721191406,0.844087791442871,0.0,23.25,0.0,3.124237060546875,0.7804300308227539,0.0,19.0,0.0,2.9822587966918945,0.8998777389526367,0.0,24.5,,,,,,,,,,,,,,,,,,,,,,,,,
0.0,8.108359907055274e-06,3.0574371814727783,0.7409842133522033,-4.826948861591518e-05,-0.0371666513383388,0.2911900281906128,-2.136520743079018e-05,0.0280267819762229,0.2050579786300659,0.0,2.879977226257324,0.8147623062133789,0.0,14.75,0.0,2.948284149169922,0.8694793701171875,0.0,23.0,0.0,3.117084503173828,0.8194114685058593,0.0,19.0,0.0,2.98154354095459,0.9145404815673828,0.0,24.5,,,,,,,,,,,,,,,,,,,,,,,,,
0.0,8.108359907055274e-06,3.0574371814727783,0.7409842133522033,-4.826948861591518e-05,-0.0371666513383388,0.2911900281906128,-2.136520743079018e-05,0.0280267819762229,0.2050579786300659,0.0,2.8842687606811523,0.7979537963867187,0.0,14.25,0.0,3.113865852355957,0.8498098373413085,0.0,19.25,0.0,2.93576717376709,0.9388591766357421,0.0,23.0,0.0,2.9758214950561523,0.9503032684326171,0.0,24.25,,,,,,,,,,,,,,,,,,,,,,,,,
0.0,8.108359907055274e-06,3.0574371814727783,0.7409842133522033,-4.826948861591518e-05,-0.0371666513383388,0.2911900281906128,-2.136520743079018e-05,0.0280267819762229,0.2050579786300659,0.0,3.1006336212158203,0.866975975036621,0.0,19.75,0.0,2.9407739639282227,0.9259845733642578,0.0,24.0,0.0,2.980470657348633,0.911679458618164,0.0,25.25,,,,,,,,,,,,,,,,,,,,,,,,,,,,,,
0.0,8.108359907055274e-06,3.0574371814727783,0.7409842133522033,-4.826948861591518e-05,-0.0371666513383388,0.2911900281906128,-2.136520743079018e-05,0.0280267819762229,0.2050579786300659,,,,,,,,,,,,,,,,,,,,,,,,,,,,,,,,,,,,,,,,,,,,,
0.0,8.108359907055274e-06,3.0574371814727783,0.7409842133522033,-4.826948861591518e-05,-0.0371666513383388,0.2911900281906128,-2.136520743079018e-05,0.0280267819762229,0.2050579786300659,,,,,,,,,,,,,,,,,,,,,,,,,,,,,,,,,,,,,,,,,,,,,
0.0,8.108359907055274e-06,3.0574371814727783,0.7409842133522033,-4.826948861591518e-05,-0.0371666513383388,0.2911900281906128,-2.136520743079018e-05,0.0280267819762229,0.2050579786300659,0.0,3.453969955444336,-0.6311271667480469,0.0,18.5,0.0,3.4807920455932617,-0.6304119110107422,0.0,16.75,0.0,2.990841865539551,0.841942024230957,0.0,24.75,,,,,,,,,,,,,,,,,,,,,,,,,,,,,,
0.0,8.108359907055274e-06,3.0574371814727783,0.7409842133522033,-4.826948861591518e-05,-0.0371666513383388,0.2911900281906128,-2.136520743079018e-05,0.0280267819762229,0.2050579786300659,0.0,3.391385078430176,-0.8460615158081057,0.0,14.75,0.0,3.471493721008301,-0.8210275650024415,0.0,14.0,0.0,2.967953681945801,0.8237030029296875,0.0,24.0,0.0,2.995133399963379,0.7793571472167968,0.0,25.25,,,,,,,,,,,,,,,,,,,,,,,,,
0.0,8.108359907055274e-06,3.0574371814727783,0.7409842133522033,-4.826948861591518e-05,-0.0371666513383388,0.2911900281906128,-2.136520743079018e-05,0.0280267819762229,0.2050579786300659,0.0,3.4335851669311523,-0.4101131439208984,0.0,12.5,0.0,2.9654502868652344,0.8369352340698242,0.0,22.0,0.0,2.9979944229125977,0.8083250045776367,0.0,23.25,0.0,3.073453903198242,0.8591081619262695,0.0,17.0,0.0,2.8688907623291016,0.9048845291137695,0.0,13.0,,,,,,,,,,,,,,,,,,,,
0.0,8.108359907055274e-06,3.0574371814727783,0.7409842133522033,-4.826948861591518e-05,-0.0371666513383388,0.2911900281906128,-2.136520743079018e-05,0.0280267819762229,0.2050579786300659,0.0,3.4400224685668945,-0.5052421569824219,0.0,14.0,0.0,3.5398006439208984,-0.4902217864990234,0.0,12.25,0.0,2.9758214950561523,0.8769895553588867,0.0,23.75,0.0,2.871036529541016,0.9070302963256835,0.0,13.75,0.0,2.9532909393310547,0.8769895553588867,0.0,23.0,0.0,3.05020809173584,0.9263422012329101,0.0,17.5,,,,,,,,,,,,,,,
0.0,8.108359907055274e-06,3.0574371814727783,0.7409842133522033,-4.826948861591518e-05,-0.0371666513383388,0.2911900281906128,-2.136520743079018e-05,0.0280267819762229,0.2050579786300659,0.0,2.8839111328125,0.8530284881591796,0.0,12.75,0.0,2.973318099975586,0.8101131439208984,0.0,22.25,0.0,2.995848655700684,0.8033182144165039,0.0,23.5,0.0,3.0580759048461914,0.8630420684814453,0.0,17.0,,,,,,,,,,,,,,,,,,,,,,,,,
0.0,8.108359907055274e-06,3.0574371814727783,0.7409842133522033,-4.826948861591518e-05,-0.0371666513383388,0.2911900281906128,-2.136520743079018e-05,0.0280267819762229,0.2050579786300659,0.0,3.442525863647461,-0.4490945816040039,0.0,13.0,0.0,3.608107566833496,-0.2699230194091797,0.0,12.0,0.0,2.902507781982422,0.7797147750854492,0.0,14.0,0.0,2.9747486114501958,0.7682706832885742,0.0,23.25,0.0,2.9897689819335938,0.7704164505004882,0.0,24.25,0.0,3.05020809173584,0.8623268127441406,0.0,16.75,,,,,,,,,,,,,,,
0.0,8.108359907055274e-06,3.0574371814727783,0.7409842133522033,-4.826948861591518e-05,-0.0371666513383388,0.2911900281906128,-2.136520743079018e-05,0.0280267819762229,0.2050579786300659,0.0,3.4128427505493164,-0.5849931716918946,0.0,14.75,0.0,3.529787063598633,-0.5334947586059571,0.0,13.75,0.0,3.017306327819824,0.6184246063232421,0.0,22.0,0.0,3.036975860595703,0.5941059112548828,0.0,24.0,0.0,3.1049251556396484,0.6509687423706054,0.0,17.25,0.0,2.910017967224121,0.7446672439575195,0.0,12.25,,,,,,,,,,,,,,,
0.0,8.108359907055274e-06,3.0574371814727783,0.7409842133522033,-4.826948861591518e-05,-0.0371666513383388,0.2911900281906128,-2.136520743079018e-05,0.0280267819762229,0.2050579786300659,0.0,3.382086753845215,-0.5059574127197266,0.0,12.25,0.0,3.570556640625,-0.407609748840332,0.0,12.25,0.0,3.0072927474975586,0.6427433013916015,0.0,21.0,0.0,3.048419952392578,0.6109144210815429,0.0,23.0,0.0,3.1163692474365234,0.658836555480957,0.0,18.0,0.0,2.9039382934570312,0.7221366882324218,0.0,12.25,,,,,,,,,,,,,,,
0.0,8.108359907055274e-06,3.0574371814727783,0.7409842133522033,-4.826948861591518e-05,-0.0371666513383388,0.2911900281906128,-2.136520743079018e-05,0.0280267819762229,0.2050579786300659,0.0,3.4443140029907227,-0.4383657455444336,0.0,16.25,0.0,3.5626888275146484,-0.34752826690673827,0.0,16.5,0.0,3.0341148376464844,0.6466772079467773,0.0,24.0,0.0,3.131389617919922,0.6034042358398437,0.0,18.25,0.0,2.902150154113769,0.7636215209960937,0.0,13.5,0.0,2.990841865539551,0.7121231079101562,0.0,22.5,,,,,,,,,,,,,,,
0.0,8.108359907055274e-06,3.0574371814727783,0.7409842133522033,-4.826948861591518e-05,-0.0371666513383388,0.2911900281906128,-2.136520743079018e-05,0.0280267819762229,0.2050579786300659,0.0,3.0519962310791016,0.6756450653076171,0.0,23.5,0.0,3.170371055603028,0.5257989883422851,0.0,19.25,0.0,3.009796142578125,0.6949569702148437,0.0,21.5,,,,,,,,,,,,,,,,,,,,,,,,,,,,,,
0.0,8.108359907055274e-06,3.0574371814727783,0.7409842133522033,-4.826948861591518e-05,-0.0371666513383388,0.2911900281906128,-2.136520743079018e-05,0.0280267819762229,0.2050579786300659,0.0,3.0673742294311523,0.6892349243164062,0.0,23.5,0.0,3.188610076904297,0.5157854080200195,0.0,20.0,0.0,2.9987096786499023,0.7600452423095703,0.0,20.75,,,,,,,,,,,,,,,,,,,,,,,,,,,,,,
0.0,8.108359907055274e-06,3.0574371814727783,0.7409842133522033,-4.826948861591518e-05,-0.0371666513383388,0.2911900281906128,-2.136520743079018e-05,0.0280267819762229,0.2050579786300659,0.0,3.403186798095703,-0.5370710372924805,0.0,18.5,0.0,3.0809640884399414,0.6302263259887695,0.0,24.25,0.0,3.16464900970459,0.546541404724121,0.0,20.75,0.0,3.019094467163086,0.7242824554443359,0.0,21.0,,,,,,,,,,,,,,,,,,,,,,,,,
0.0,8.108359907055274e-06,3.0574371814727783,0.7409842133522033,-4.826948861591518e-05,-0.0371666513383388,0.2911900281906128,-2.136520743079018e-05,0.0280267819762229,0.2050579786300659,0.0,3.413915634155273,-0.5266998291015625,0.0,18.75,0.0,3.503680229187012,-0.5488727569580079,0.0,18.5,0.0,3.0924081802368164,0.5855228424072265,0.0,23.75,0.0,3.165721893310547,0.5651380538940429,0.0,20.5,0.0,3.018379211425781,0.6924535751342773,0.0,20.5,,,,,,,,,,,,,,,,,,,,
0.0,8.108359907055274e-06,3.0574371814727783,0.7409842133522033,-4.826948861591518e-05,-0.0371666513383388,0.2911900281906128,-2.136520743079018e-05,0.0280267819762229,0.2050579786300659,0.0,3.39353084564209,-0.6271932601928711,0.0,17.75,0.0,3.4990310668945312,-0.6096694946289063,0.0,17.75,0.0,3.033041954040528,0.6402399063110351,0.0,21.0,0.0,3.0831098556518555,0.6001855850219726,0.0,24.25,0.0,3.1589269638061523,0.5429651260375976,0.0,20.75,,,,,,,,,,,,,,,,,,,,
