tid,posx,posy,posz,velx,vely,velz,accx,accy,accz,pointx1,pointy1,pointz1,doppler1,snr1,pointx2,pointy2,pointz2,doppler2,snr2,pointx3,pointy3,pointz3,doppler3,snr3,pointx4,pointy4,pointz4,doppler4,snr4,pointx5,pointy5,pointz5,doppler5,snr5,pointx6,pointy6,pointz6,doppler6,snr6,pointx7,pointy7,pointz7,doppler7,snr7,pointx8,pointy8,pointz8,doppler8,snr8,pointx9,pointy9,pointz9,doppler9,snr9,pointx10,pointy10,pointz10,doppler10,snr10,pointx11,pointy11,pointz11,doppler11,snr11,pointx12,pointy12,pointz12,doppler12,snr12,pointx13,pointy13,pointz13,doppler13,snr13
0.0,-1.175994679414316e-08,2.809456586837769,0.5252217769622802,9.811812695659228e-09,0.050918124616146,-0.2168380916118621,5.9697287113635875e-09,-0.0101131126284599,-0.1919283419847488,0.0,3.1578540802001958,-1.0019872665405272,0.0,13.0,0.0,3.237247467041016,0.07554550170898441,0.0,16.25,0.0,3.030538558959961,0.21215934753417962,0.0,18.5,,,,,,,,,,,,,,,,,,,,,,,,,,,,,,,,,,,,,,,,,,,,,,,,,,
0.0,-1.175994679414316e-08,2.809456586837769,0.5252217769622802,9.811812695659228e-09,0.050918124616146,-0.2168380916118621,5.9697287113635875e-09,-0.0101131126284599,-0.1919283419847488,0.0,3.1692981719970703,-0.9912584304809571,0.0,13.25,0.0,3.245115280151367,-0.024232673645019492,0.0,15.75,0.0,3.027677536010742,0.1828338623046875,0.0,17.5,,,,,,,,,,,,,,,,,,,,,,,,,,,,,,,,,,,,,,,,,,,,,,,,,,
0.0,-1.1029996471734194e-08,2.798682689666748,0.541241031885147,1.0719867660213822e-08,0.0285827964544296,-0.1887985318899154,6.528353413415289e-09,-0.0380862616002559,-0.1689318716526031,0.0,2.645730972290039,0.6967451095581054,-0.1917510479688644,13.0,0.0,2.6650428771972656,0.6985332489013671,-0.1917510479688644,16.0,0.0,3.1925439834594727,-0.8657310485839844,0.0,13.75,0.0,3.22723388671875,-0.3103349685668945,0.0,16.5,0.0,3.0155181884765625,0.196781349182129,0.0,15.75,,,,,,,,,,,,,,,,,,,,,,,,,,,,,,,,,,,,,,,,
0.0,-1.1029996471734194e-08,2.798682689666748,0.541241031885147,1.0719867660213822e-08,0.0285827964544296,-0.1887985318899154,6.528353413415289e-09,-0.0380862616002559,-0.1689318716526031,0.0,3.085970878601074,-1.1421773910522461,0.0,15.25,0.0,3.210783004760742,-0.4451606750488281,0.0,17.0,0.0,3.03339958190918,0.25328655242919923,0.0,17.0,0.0,2.7304887771606445,0.7536079406738281,0.0,24.25,,,,,,,,,,,,,,,,,,,,,,,,,,,,,,,,,,,,,,,,,,,,,
0.0,-1.1029996471734194e-08,2.798682689666748,0.541241031885147,1.0719867660213822e-08,0.0285827964544296,-0.1887985318899154,6.528353413415289e-09,-0.0380862616002559,-0.1689318716526031,0.0,3.124237060546875,-1.089963722229004,0.0,15.75,0.0,3.210783004760742,-0.3085468292236328,0.0,17.25,0.0,3.058791160583496,0.15100498199462903,0.0,18.25,,,,,,,,,,,,,,,,,,,,,,,,,,,,,,,,,,,,,,,,,,,,,,,,,,
0.0,-1.1029996471734194e-08,2.798682689666748,0.541241031885147,1.0719867660213822e-08,0.0285827964544296,-0.1887985318899154,6.528353413415289e-09,-0.0380862616002559,-0.1689318716526031,0.0,3.099203109741211,-1.1625621795654297,0.0,14.75,0.0,3.2172203063964844,-0.15262107849121087,0.0,16.75,0.0,3.0573606491088867,0.164594841003418,0.0,18.5,,,,,,,,,,,,,,,,,,,,,,,,,,,,,,,,,,,,,,,,,,,,,,,,,,
0.0,-1.1029996471734194e-08,2.798682689666748,0.541241031885147,1.0719867660213822e-08,0.0285827964544296,-0.1887985318899154,6.528353413415289e-09,-0.0380862616002559,-0.1689318716526031,0.0,3.145694732666016,-1.0331008911132813,0.0,14.75,0.0,3.206491470336914,-0.2173517227172851,0.0,16.25,0.0,3.0519962310791016,0.1299049377441407,0.0,18.25,,,,,,,,,,,,,,,,,,,,,,,,,,,,,,,,,,,,,,,,,,,,,,,,,,
0.0,-1.0655735849240957e-08,2.7971112728118896,0.5500012159347534,1.1185696813242885e-08,0.0309814102947711,-0.172948271036148,6.810261687917318e-09,-0.0301694571971893,-0.1548782140016555,0.0,2.675414085388184,0.7561113357543945,0.1917510479688644,12.25,0.0,3.234386444091797,-0.7688138961791993,0.0,15.25,0.0,3.2111406326293945,-0.37363510131835936,0.0,16.5,0.0,2.714395523071289,0.8222724914550781,0.0,23.5,,,,,,,,,,,,,,,,,,,,,,,,,,,,,,,,,,,,,,,,,,,,,
0.0,-1.0305709174929234e-08,2.795456647872925,0.5595148921012878,1.1621618334345385e-08,0.0330467633903026,-0.1557772755622863,7.07439218317063e-09,-0.0227540824562311,-0.1397034972906112,0.0,2.6700496673583984,0.7911588668823242,0.1917510479688644,13.5,0.0,3.291964530944824,-0.609311866760254,0.0,13.75,0.0,3.236532211303711,-0.12186508178710936,0.0,14.75,,,,,,,,,,,,,,,,,,,,,,,,,,,,,,,,,,,,,,,,,,,,,,,,,,
0.0,-1.0305709174929234e-08,2.795456647872925,0.5595148921012878,1.1621618334345385e-08,0.0330467633903026,-0.1557772755622863,7.07439218317063e-09,-0.0227540824562311,-0.1397034972906112,0.0,3.288745880126953,-0.6264780044555665,0.0,13.25,0.0,3.231525421142578,-0.1572702407836914,0.0,15.0,0.0,3.013014793395996,0.18140335083007822,0.0,16.5,,,,,,,,,,,,,,,,,,,,,,,,,,,,,,,,,,,,,,,,,,,,,,,,,,
0.0,-1.0305709174929234e-08,2.795456647872925,0.5595148921012878,1.1621618334345385e-08,0.0330467633903026,-0.1557772755622863,7.07439218317063e-09,-0.0227540824562311,-0.1397034972906112,0.0,3.2204389572143555,-0.02459030151367178,0.0,12.75,0.0,2.71761417388916,0.8054639816284179,0.0,24.5,,,,,,,,,,,,,,,,,,,,,,,,,,,,,,,,,,,,,,,,,,,,,,,,,,,,,,,
0.0,-1.0305709174929234e-08,2.795456647872925,0.5595148921012878,1.1621618334345385e-08,0.0330467633903026,-0.1557772755622863,7.07439218317063e-09,-0.0227540824562311,-0.1397034972906112,0.0,3.197550773620605,-0.12758712768554686,0.0,12.5,0.0,2.9897689819335938,0.1434947967529297,0.0,15.5,,,,,,,,,,,,,,,,,,,,,,,,,,,,,,,,,,,,,,,,,,,,,,,,,,,,,,,
0.0,-1.0305709174929234e-08,2.795456647872925,0.5595148921012878,1.1621618334345385e-08,0.0330467633903026,-0.1557772755622863,7.07439218317063e-09,-0.0227540824562311,-0.1397034972906112,,,,,,,,,,,,,,,,,,,,,,,,,,,,,,,,,,,,,,,,,,,,,,,,,,,,,,,,,,,,,,,,,
0.0,-1.0305709174929234e-08,2.795456647872925,0.5595148921012878,1.1621618334345385e-08,0.0330467633903026,-0.1557772755622863,7.07439218317063e-09,-0.0227540824562311,-0.1397034972906112,0.0,3.198981285095215,-0.532421875,0.0,12.75,,,,,,,,,,,,,,,,,,,,,,,,,,,,,,,,,,,,,,,,,,,,,,,,,,,,,,,,,,,,
0.0,-1.0305709174929234e-08,2.795456647872925,0.5595148921012878,1.1621618334345385e-08,0.0330467633903026,-0.1557772755622863,7.07439218317063e-09,-0.0227540824562311,-0.1397034972906112,0.0,2.910375595092773,0.5626346588134765,0.0,13.25,,,,,,,,,,,,,,,,,,,,,,,,,,,,,,,,,,,,,,,,,,,,,,,,,,,,,,,,,,,,
0.0,-1.0305709174929234e-08,2.795456647872925,0.5595148921012878,1.1621618334345385e-08,0.0330467633903026,-0.1557772755622863,7.07439218317063e-09,-0.0227540824562311,-0.1397034972906112,0.0,3.300905227661133,-0.6100271224975586,0.0,12.5,0.0,3.2204389572143555,-0.35718421936035155,0.0,14.0,0.0,2.9894113540649414,0.1631643295288086,0.0,15.0,0.0,2.564549446105957,0.7557537078857421,0.0,13.0,0.0,2.648234367370605,0.7897283554077148,0.0,26.25,0.0,2.6682615280151367,0.7947351455688476,0.0,29.5,0.0,2.7036666870117188,0.8254911422729492,0.0,25.25,,,,,,,,,,,,,,,,,,,,,,,,,,,,,,
0.0,-1.0305709174929234e-08,2.795456647872925,0.5595148921012878,1.1621618334345385e-08,0.0330467633903026,-0.1557772755622863,7.07439218317063e-09,-0.0227540824562311,-0.1397034972906112,0.0,3.287315368652344,-0.6418560028076172,0.0,13.5,0.0,3.2018423080444336,-0.5055997848510743,0.0,15.0,0.0,3.0258893966674805,0.0519420623779297,0.0,15.0,0.0,2.6432275772094727,0.8515979766845703,0.0,24.25,0.0,2.6646852493286133,0.8859302520751953,0.0,28.5,0.0,2.695441246032715,0.9091760635375976,0.0,25.0,,,,,,,,,,,,,,,,,,,,,,,,,,,,,,,,,,,
0.0,-1.0305709174929234e-08,2.795456647872925,0.5595148921012878,1.1621618334345385e-08,0.0330467633903026,-0.1557772755622863,7.07439218317063e-09,-0.0227540824562311,-0.1397034972906112,0.0,3.2651424407958984,-0.7223222732543944,0.0,12.75,0.0,3.208637237548828,-0.3460977554321289,0.0,15.0,0.0,3.051638603210449,-0.13867359161376946,0.0,16.0,0.0,2.6503801345825195,0.8272792816162109,0.0,23.25,0.0,2.6743412017822266,0.866975975036621,0.0,27.75,0.0,2.698659896850586,0.901308250427246,0.0,24.5,,,,,,,,,,,,,,,,,,,,,,,,,,,,,,,,,,,
0.0,-1.0305709174929234e-08,2.795456647872925,0.5595148921012878,1.1621618334345385e-08,0.0330467633903026,-0.1557772755622863,7.07439218317063e-09,-0.0227540824562311,-0.1397034972906112,0.0,3.1996965408325195,-0.33501129150390624,0.0,14.75,0.0,3.0355453491210938,-0.08574466705322259,0.0,16.25,0.0,2.6575326919555664,0.7714893341064453,0.0,22.0,0.0,2.6847124099731445,0.8247758865356445,0.0,26.25,0.0,2.7076005935668945,0.8844997406005859,0.0,23.25,,,,,,,,,,,,,,,,,,,,,,,,,,,,,,,,,,,,,,,,
0.0,-1.0305709174929234e-08,2.795456647872925,0.5595148921012878,1.1621618334345385e-08,0.0330467633903026,-0.1557772755622863,7.07439218317063e-09,-0.0227540824562311,-0.1397034972906112,0.0,3.186821937561035,-0.37220458984375,0.0,13.75,0.0,3.0308961868286133,0.018325042724609414,0.0,15.75,0.0,2.663612365722656,0.7768537521362304,0.0,21.75,0.0,2.686142921447754,0.8380081176757812,0.0,26.5,0.0,2.7097463607788086,0.8920099258422851,0.0,23.25,,,,,,,,,,,,,,,,,,,,,,,,,,,,,,,,,,,,,,,,
0.0,-1.0305709174929234e-08,2.795456647872925,0.5595148921012878,1.1621618334345385e-08,0.0330467633903026,-0.1557772755622863,7.07439218317063e-09,-0.0227540824562311,-0.1397034972906112,0.0,3.1900405883789062,-0.41511993408203124,0.0,13.25,0.0,3.031611442565918,0.01153011322021491,0.0,15.25,0.0,2.6596784591674805,0.7260705947875976,0.0,21.75,0.0,2.6918649673461914,0.694241714477539,0.0,25.25,0.0,2.760171890258789,0.6677772521972656,0.0,21.0,,,,,,,,,,,,,,,,,,,,,,,,,,,,,,,,,,,,,,,,
0.0,-1.0305709174929234e-08,2.795456647872925,0.5595148921012878,1.1621618334345385e-08,0.0330467633903026,-0.1557772755622863,7.07439218317063e-09,-0.0227540824562311,-0.1397034972906112,0.0,3.1871795654296875,-0.4108283996582031,0.0,13.0,0.0,3.0030012130737305,-0.005278396606445301,0.0,15.25,0.0,2.701878547668457,0.6030466079711914,0.0,27.0,0.0,2.773046493530273,0.4964735031127929,0.0,22.25,0.0,2.6721954345703125,0.6638433456420898,0.0,23.75,,,,,,,,,,,,,,,,,,,,,,,,,,,,,,,,,,,,,,,,
0.0,-1.0305709174929234e-08,2.795456647872925,0.5595148921012878,1.1621618334345385e-08,0.0330467633903026,-0.1557772755622863,7.07439218317063e-09,-0.0227540824562311,-0.1397034972906112,0.0,3.175020217895508,-0.5098913192749024,0.0,12.25,0.0,3.012657165527344,-0.10934810638427728,0.0,14.5,0.0,2.790212631225586,0.3695156097412109,0.0,20.25,,,,,,,,,,,,,,,,,,,,,,,,,,,,,,,,,,,,,,,,,,,,,,,,,,
0.0,-1.0305709174929234e-08,2.795456647872925,0.5595148921012878,1.1621618334345385e-08,0.0330467633903026,-0.1557772755622863,7.07439218317063e-09,-0.0227540824562311,-0.1397034972906112,0.0,3.187894821166992,-0.48235397338867186,0.0,13.5,0.0,3.021240234375,-0.20984153747558587,0.0,14.75,0.0,2.697229385375977,0.614133071899414,0.0,25.25,0.0,2.773404121398926,0.4828836441040039,0.0,20.5,0.0,2.6646852493286133,0.6752874374389648,0.0,22.25,,,,,,,,,,,,,,,,,,,,,,,,,,,,,,,,,,,,,,,,
0.0,-1.001673410883086e-08,2.790842771530152,0.5744123876094818,1.1980324288174415e-08,0.0229175556451082,-0.1303220242261886,7.295811066398983e-09,-0.0353819131851196,-0.1187937408685684,0.0,2.63822078704834,0.9488727569580078,-0.1917510479688644,15.0,0.0,3.182530403137207,-0.4376504898071289,0.0,12.25,0.0,3.0062198638916016,-0.2312992095947265,0.0,14.0,0.0,2.7676820755004883,0.511136245727539,0.0,20.25,0.0,2.661466598510742,0.6971027374267578,0.0,22.0,0.0,2.690434455871582,0.6384517669677734,0.0,25.25,,,,,,,,,,,,,,,,,,,,,,,,,,,,,,,,,,,
0.0,-9.2207166346725e-09,2.7923970222473145,0.5876278698444366,1.2976682839394016e-08,0.0094588603824377,-0.1107710897922515,7.907624777203637e-09,-0.0645361691713333,-0.1051594391465187,0.0,3.0344724655151367,0.4782344818115234,-0.1917510479688644,14.0,0.0,2.879619598388672,0.692095947265625,-0.1917510479688644,14.75,0.0,2.709388732910156,0.9477998733520507,-0.1917510479688644,14.25,0.0,3.09133529663086,-0.9783838272094729,0.0,13.25,0.0,2.9754638671875,0.40992755889892574,0.0,15.25,0.0,2.788066864013672,0.5755092620849609,0.0,21.75,,,,,,,,,,,,,,,,,,,,,,,,,,,,,,,,,,,
0.0,-8.464470901969891e-09,2.7884199619293213,0.6082662761211395,1.3921543917660983e-08,0.0166844632476568,-0.0722905248403549,8.480897761842243e-09,-0.0421829596161842,-0.0701673477888107,0.0,2.66718864440918,0.8054639816284179,0.1917510479688644,25.0,0.0,2.7158260345458984,0.760760498046875,0.1917510479688644,20.5,0.0,2.6407241821289062,0.8258487701416015,0.1917510479688644,21.25,0.0,3.2072067260742188,-0.5206201553344727,0.0,14.25,0.0,2.9572248458862305,0.47322769165039064,0.0,15.75,0.0,2.661466598510742,0.7546808242797851,0.0,25.25,0.0,2.6836395263671875,0.7511045455932617,0.0,29.0,,,,,,,,,,,,,,,,,,,,,,,,,,,,,,
0.0,-7.635838628061721e-09,2.7873570919036865,0.6201156795024871,1.4959452343532575e-08,0.0239052791148424,-0.0497138947248458,9.11129927061438e-09,-0.0249228738248348,-0.0491574518382549,0.0,2.931833267211914,0.4338886260986328,-0.1917510479688644,15.25,0.0,2.67183780670166,0.775423240661621,0.1917510479688644,22.5,0.0,2.7008056640625,0.7686283111572265,0.1917510479688644,27.25,0.0,2.7469396591186523,0.7407333374023437,0.1917510479688644,24.25,0.0,3.191471099853516,-0.5309913635253907,0.0,17.25,0.0,2.9976367950439453,0.1331235885620118,0.0,18.25,0.0,2.667546272277832,0.7600452423095703,0.0,25.5,0.0,2.700448036193848,0.7346536636352539,0.0,30.0,,,,,,,,,,,,,,,,,,,,,,,,,
0.0,-5.640502731552033e-09,2.7800095081329346,0.6410463869571685,1.6452306184078225e-08,-0.0047102682292461,-0.0061071142554283,9.487416186004792e-09,-0.0641323029994964,-0.0073747038841247,0.0,2.7576684951782227,0.7782842636108398,-0.1917510479688644,19.0,0.0,2.637505531311035,0.9148981094360351,-0.1917510479688644,16.5,0.0,2.6836395263671875,0.8920099258422851,-0.1917510479688644,21.75,0.0,3.1603574752807617,-1.0127161026000977,0.0,13.25,0.0,3.191471099853516,-0.4204843521118164,0.0,14.75,0.0,2.9883384704589844,0.292625617980957,0.0,18.0,0.0,2.69472599029541,0.784721565246582,0.0,29.5,0.0,2.765536308288574,0.6720687866210937,0.0,26.25,0.0,2.6578903198242188,0.8072521209716796,0.0,25.25,,,,,,,,,,,,,,,,,,,,
0.0,-3.533274561817734e-09,2.778310060501098,0.6358740746974945,1.7983589728487462e-08,-0.0050667109899222,-0.0139943622052669,9.868682759872628e-09,-0.0498781204223632,-0.0124796126037836,0.0,2.685427665710449,0.5268718719482421,0.1917510479688644,13.25,0.0,2.725839614868164,0.6134178161621093,0.1917510479688644,17.5,0.0,2.7680397033691406,0.6527568817138671,-0.1917510479688644,14.5,0.0,3.269791603088379,-0.6318424224853516,0.0,16.0,0.0,3.210783004760742,-0.48879127502441405,0.0,17.75,0.0,3.009796142578125,0.1903440475463868,0.0,18.75,0.0,2.662897109985352,0.7965232849121093,0.0,25.0,0.0,2.695441246032715,0.7897283554077148,0.0,29.75,0.0,2.7637481689453125,0.6870891571044921,0.0,26.5,,,,,,,,,,,,,,,,,,,,
0.0,-1.4321989150190007e-09,2.777060270309448,0.6565568566322326,1.935261373375852e-08,0.0058251116424798,0.031914547085762,1.0118756499366556e-08,-0.012040376663208,0.0341168418526649,0.0,3.241896629333496,-0.7677410125732422,-0.1917510479688644,14.25,0.0,3.231167793273926,-0.6236169815063477,-0.1917510479688644,15.0,0.0,2.6772022247314453,0.7096197128295898,0.1917510479688644,18.25,0.0,2.68399715423584,0.7757808685302734,0.1917510479688644,22.75,0.0,2.730846405029297,0.7428791046142578,0.1917510479688644,18.5,0.0,3.221869468688965,-0.55531005859375,0.0,18.25,0.0,2.7784109115600586,0.6323720932006835,0.0,27.0,0.0,2.670764923095703,0.760760498046875,0.0,25.5,0.0,2.707958221435547,0.738945198059082,0.0,30.0,,,,,,,,,,,,,,,,,,,,
0.0,5.898074251220463e-10,2.79842209815979,0.6263483881950378,2.0484042906332437e-08,0.0671189054846763,-0.0245372392237186,1.0194004751440389e-08,0.0848532989621162,-0.0126377865672111,0.0,3.0230283737182617,0.2951290130615234,-0.1917510479688644,13.75,0.0,2.707958221435547,0.4381801605224609,0.3835020959377289,14.75,0.0,2.756953239440918,0.6051923751831054,0.3835020959377289,19.75,0.0,2.827763557434082,0.6194974899291992,0.3835020959377289,18.5,0.0,3.271937370300293,-0.6672475814819336,0.0,16.75,0.0,3.206491470336914,-0.5113218307495118,0.0,18.0,0.0,3.003358840942383,0.23540515899658201,0.0,19.75,0.0,2.6711225509643555,0.7611181259155273,0.0,26.0,0.0,2.697944641113281,0.7604028701782226,0.0,30.5,0.0,2.768397331237793,0.6556179046630859,0.0,27.0,,,,,,,,,,,,,,,
0.0,2.333785165120616e-09,2.806393623352051,0.6183962643146514,2.1039102904296673e-08,0.0885619297623634,-0.0338315367698669,9.898399433438954e-09,0.1105469092726707,-0.0174723975360393,0.0,2.710103988647461,0.5837347030639648,0.1917510479688644,17.5,0.0,2.743721008300781,0.5844499588012695,0.1917510479688644,23.25,0.0,2.7805566787719727,0.603761863708496,0.1917510479688644,20.0,0.0,3.271937370300293,-0.6107423782348633,0.0,18.0,0.0,3.23331356048584,-0.36362152099609374,0.0,19.75,0.0,3.0072927474975586,0.1477863311767579,0.0,20.75,0.0,2.7812719345092773,0.6034042358398437,0.0,28.75,0.0,2.6836395263671875,0.7260705947875976,0.0,27.0,0.0,2.716541290283203,0.7031824111938476,0.0,32.0,,,,,,,,,,,,,,,,,,,,
0.0,3.7951437548144895e-09,2.829301595687866,0.5509497940540313,2.1108036207806435e-08,0.1214511170983314,-0.1509066820144653,9.313642301833625e-09,0.1289397478103637,-0.1154930740594863,0.0,2.849578857421875,0.2969171524047851,0.1917510479688644,17.75,0.0,2.892494201660156,0.326957893371582,0.1917510479688644,20.75,0.0,2.937197685241699,0.4249479293823242,-0.1917510479688644,15.25,0.0,3.2186508178710938,-0.4301403045654297,0.0,19.75,0.0,3.2869577407836914,-0.5338523864746094,0.0,17.5,0.0,2.785921096801758,0.578727912902832,0.0,28.0,0.0,2.575993537902832,0.7339384078979492,0.0,12.0,0.0,2.676844596862793,0.7421638488769531,0.0,26.75,0.0,2.713322639465332,0.6974603652954101,0.0,31.5,,,,,,,,,,,,,,,,,,,,
0.0,4.733095693154611e-09,2.840502977371216,0.6117498099803924,2.046327196580933e-08,0.1496698558330536,-0.0281931161880493,8.335678813864433e-09,0.1683019399642944,-0.0010698810219764,0.0,2.7490854263305664,0.8047487258911132,0.3835020959377289,19.75,0.0,2.817392349243164,0.7303621292114257,0.3835020959377289,20.25,0.0,2.9093027114868164,0.6960298538208007,0.3835020959377289,14.0,0.0,2.6428699493408203,0.8916522979736328,-0.1917510479688644,13.5,0.0,3.222584724426269,-0.41941146850585936,0.0,19.25,0.0,3.2984018325805664,-0.5070302963256836,0.0,17.0,0.0,3.0101537704467773,0.1352693557739258,0.0,20.25,0.0,2.7952194213867188,0.5404617309570312,0.0,27.5,0.0,2.6918649673461914,0.681724739074707,0.0,25.5,0.0,2.727627754211426,0.6452466964721679,0.0,30.5,,,,,,,,,,,,,,,
0.0,5.3245141629076906e-09,2.8447513580322266,0.6288224875926971,1.9357296210387176e-08,0.143474280834198,0.0048223081976175,7.1424555159183e-09,0.1414188891649246,0.025029893964529,0.0,2.9146671295166016,0.4721548080444336,-0.1917510479688644,17.0,0.0,2.83205509185791,0.6087686538696289,0.1917510479688644,24.0,0.0,2.7791261672973637,0.737872314453125,0.1917510479688644,23.25,0.0,2.6750564575195312,0.8819963455200195,0.1917510479688644,15.25,0.0,3.2476186752319336,-0.40617923736572265,0.0,19.0,0.0,3.3245086669921875,-0.4108283996582031,0.0,17.0,0.0,3.005504608154297,0.1735355377197266,0.0,18.5,0.0,2.7801990509033203,0.5840923309326171,0.0,27.0,0.0,2.6907920837402344,0.6835128784179687,0.0,25.5,0.0,2.7261972427368164,0.6559755325317382,0.0,30.25,,,,,,,,,,,,,,,
0.0,6.020801635031603e-09,2.8520166873931885,0.644459468126297,1.8449437533263332e-08,0.1403332203626632,0.0315032675862312,6.153358711458168e-09,0.1195552423596382,0.0436578318476676,0.0,2.9175281524658203,0.5261566162109375,-0.1917510479688644,14.0,0.0,2.7762651443481445,0.7882978439331054,0.1917510479688644,20.0,0.0,2.8177499771118164,0.7092620849609375,0.1917510479688644,21.0,0.0,3.2547712326049805,-0.39723854064941405,0.0,20.75,0.0,3.330230712890625,-0.36290626525878905,0.0,19.0,0.0,3.0215978622436523,0.2075101852416992,0.0,20.0,0.0,2.741575241088867,0.6248619079589843,0.0,29.75,0.0,2.797722816467285,0.569429588317871,0.0,27.5,0.0,2.701878547668457,0.6363059997558593,0.0,25.0,,,,,,,,,,,,,,,,,,,,
0.0,6.394519136421195e-09,2.84765887260437,0.6364845752716064,1.715281960912307e-08,0.09214948117733,0.012406688183546,4.985522661371533e-09,0.026394248008728,0.01769794896245,0.0,2.879977226257324,0.5640651702880859,-0.1917510479688644,19.5,0.0,2.935409545898437,0.5354549407958984,-0.1917510479688644,14.0,0.0,2.797365188598633,0.7582571029663085,-0.1917510479688644,16.5,0.0,3.23331356048584,-0.34073333740234374,0.0,18.5,0.0,3.337740898132324,-0.3478858947753906,0.0,16.0,0.0,3.002285957336426,0.2658035278320312,0.0,19.75,0.0,2.8023719787597656,0.5619194030761718,0.0,27.0,0.0,2.700448036193848,0.6563331604003906,0.0,24.5,0.0,2.739071846008301,0.6405975341796875,0.0,29.75,,,,,,,,,,,,,,,,,,,,
0.0,6.139744268551793e-09,2.828832626342773,0.6496054649353027,1.5185641188963928e-08,0.028599202632904,0.0298704132437706,3.503053846998227e-09,-0.0619132965803146,0.0253383535891771,0.0,3.1342506408691406,-0.8986328125,0.1917510479688644,12.75,0.0,2.7930736541748047,0.6341602325439453,-0.1917510479688644,25.25,0.0,2.709031105041504,0.717129898071289,-0.1917510479688644,19.5,0.0,2.764463424682617,0.6799365997314453,-0.1917510479688644,26.25,0.0,2.8928518295288086,0.694241714477539,0.1917510479688644,15.75,0.0,3.206491470336914,-0.44551830291748046,0.0,19.25,0.0,3.3059120178222656,-0.4759166717529297,0.0,16.0,,,,,,,,,,,,,,,,,,,,,,,,,,,,,,
0.0,5.892599297396828e-09,2.835570812225342,0.6554361402988433,1.3424381606341741e-08,0.0493802204728126,0.0403870604932308,2.264276766084094e-09,-0.0126065723598003,0.0362875312566757,0.0,3.15713882446289,-0.6472204208374024,0.1917510479688644,13.5,0.0,2.92825698852539,0.4506971359252929,0.1917510479688644,17.0,0.0,2.707242965698242,0.7106925964355468,0.1917510479688644,20.25,0.0,2.753734588623047,0.6963874816894531,0.1917510479688644,26.75,0.0,2.783060073852539,0.6777908325195312,0.1917510479688644,25.5,0.0,3.186821937561035,2.3550655364990236,0.1917510479688644,13.0,0.0,2.949357032775879,0.44425983428955074,0.0,21.0,0.0,3.2608509063720703,2.167310905456543,0.0,14.0,,,,,,,,,,,,,,,,,,,,,,,,,
0.0,5.5978088830954675e-09,2.8396811485290527,0.6845053255558013,1.1712063319180288e-08,0.0640264898538589,0.0868119150400161,1.126865600831195e-09,0.0229793936014175,0.0751529559493064,0.0,3.254413604736328,-0.5828474044799805,0.1917510479688644,17.25,0.0,3.296971321105957,-0.5052421569824219,0.1917510479688644,16.25,0.0,2.6990175247192383,0.7443096160888671,0.1917510479688644,17.75,0.0,2.742648124694824,0.762906265258789,0.1917510479688644,24.25,0.0,2.7948617935180664,0.7253553390502929,0.1917510479688644,23.25,0.0,2.933979034423828,0.6752874374389648,0.1917510479688644,16.5,0.0,3.119945526123047,2.4140741348266603,0.0,13.75,,,,,,,,,,,,,,,,,,,,,,,,,,,,,,
0.0,5.922947909908771e-09,2.841287612915039,0.7373009443283081,1.0824786400576158e-08,0.0655020624399185,0.1661138385534286,5.377118750260479e-10,0.0315879955887794,0.1363823413848877,0.0,3.0040740966796875,-1.048478889465332,0.1917510479688644,12.25,0.0,3.2401084899902344,-0.713381576538086,0.1917510479688644,19.75,0.0,3.259420394897461,-0.668678092956543,0.1917510479688644,18.5,0.0,2.846002578735352,0.831570816040039,0.1917510479688644,12.5,0.0,2.686142921447754,1.0311271667480468,0.1917510479688644,12.75,0.0,3.2662153244018555,2.2799636840820314,0.1917510479688644,12.25,0.0,3.1785964965820312,-0.7083747863769532,0.0,21.0,0.0,3.241896629333496,-0.6922815322875977,0.0,16.75,0.0,3.4171342849731445,1.4820959091186523,0.0,12.25,0.0,3.343820571899414,2.0686056137084963,0.0,14.5,,,,,,,,,,,,,,,
0.0,5.666578761776009e-09,2.8821663856506348,0.6296575486660003,9.3329060035785e-09,0.1310286968946457,-0.0188876986503601,-3.671564718921161e-10,0.0970061644911766,-0.0252436250448226,0.0,2.706170082092285,-1.6607378005981444,0.1917510479688644,12.5,0.0,2.950429916381836,0.2568628311157226,0.1917510479688644,22.75,0.0,3.0030012130737305,0.2211000442504882,0.1917510479688644,20.25,0.0,2.887129783630371,0.302996826171875,0.1917510479688644,18.0,0.0,3.216147422790528,-0.7777545928955079,0.0,16.75,0.0,3.1567811965942383,-0.7094476699829102,0.0,20.25,0.0,2.956509590148926,0.4349615097045898,0.0,21.75,,,,,,,,,,,,,,,,,,,,,,,,,,,,,,
0.0,5.290394788914909e-09,2.8401498794555664,0.6516895413398742,7.735008189513337e-09,0.009021908044815,0.0119194108992815,-1.313044784012618e-09,-0.0781093314290046,-0.0068242475390434,0.0,2.800941467285156,0.6262924194335937,-0.3835020959377289,18.0,0.0,2.6661157608032227,0.7575418472290039,-0.3835020959377289,15.0,0.0,2.730131149291992,0.7253553390502929,-0.3835020959377289,20.0,0.0,3.322720527648926,1.9752647399902343,0.1917510479688644,14.0,0.0,3.2508373260498047,2.239909362792969,0.1917510479688644,18.75,0.0,3.2951831817626958,2.5170709609985353,0.1917510479688644,14.5,0.0,3.1946897506713867,-0.7012222290039063,0.0,21.0,0.0,3.269791603088379,-0.6558034896850586,0.0,18.5,,,,,,,,,,,,,,,,,,,,,,,,,
0.0,5.183241835737817e-09,2.8296422958374023,0.6682003259658813,6.596494461774682e-09,-0.0152454283088445,0.0360336229205131,-1.905416935343851e-09,-0.0926423221826553,0.0134145841002464,0.0,3.2715797424316406,-0.6347034454345704,-0.1917510479688644,13.25,0.0,3.2951831817626958,-0.719818878173828,-0.1917510479688644,14.25,0.0,2.72512435913086,0.6870891571044921,-0.1917510479688644,16.0,0.0,2.77554988861084,0.7582571029663085,0.1917510479688644,14.0,0.0,3.1675100326538086,2.302494239807129,0.1917510479688644,15.5,0.0,3.2050609588623047,2.3468400955200197,0.1917510479688644,20.75,0.0,3.300189971923828,2.5099184036254885,0.1917510479688644,17.25,0.0,3.173232078552246,-0.7849071502685547,0.0,19.75,0.0,3.298044204711914,-0.6200407028198243,0.0,17.0,,,,,,,,,,,,,,,,,,,,
0.0,4.9247117495099255e-09,2.803459882736206,0.7308336019515991,5.35815969371356e-09,-0.0738522186875343,0.1289942562580108,-2.524558562200241e-09,-0.1497315764427185,0.0851882994174957,0.0,2.681493759155273,0.9202625274658203,-0.1917510479688644,13.25,0.0,2.7573108673095703,0.9535219192504882,-0.1917510479688644,12.25,0.0,3.1986236572265625,-0.6640289306640625,0.0,20.25,0.0,3.3398866653442383,-0.5077455520629883,0.0,17.75,0.0,3.173232078552246,2.242055130004883,0.0,17.5,0.0,3.365635871887207,2.4133588790893556,0.0,18.75,,,,,,,,,,,,,,,,,,,,,,,,,,,,,,,,,,,
0.0,4.963134792035362e-09,2.7882421016693115,0.7989467501640319,4.561004018910353e-09,-0.089403435587883,0.2262362092733383,-2.8376869742885447e-09,-0.1372826993465423,0.1594268381595611,0.0,2.6096105575561523,1.1090900421142578,0.1917510479688644,14.75,0.0,3.2501220703125,-0.6089542388916016,0.0,20.75,0.0,3.3316612243652344,-0.5202625274658204,0.0,18.5,0.0,2.685070037841797,0.786867332458496,0.0,21.5,0.0,2.7304887771606445,0.7893707275390625,0.0,27.5,0.0,2.790212631225586,0.7257129669189453,0.0,26.25,0.0,3.21650505065918,2.1637346267700197,0.0,16.5,0.0,3.257274627685547,2.2499229431152346,0.0,21.25,0.0,3.402113914489746,2.3572113037109372,0.0,18.0,,,,,,,,,,,,,,,,,,,,
0.0,4.860199354084216e-09,2.7556324005126958,0.882040274143219,3.6625156241143486e-09,-0.1445292234420776,0.3326851427555084,-3.19494053435676e-09,-0.1798235476016998,0.2288685142993927,0.0,2.578139305114746,1.2045766830444335,-0.1917510479688644,14.0,0.0,3.258705139160156,-0.5191896438598633,0.0,20.25,0.0,3.334164619445801,-0.4816387176513672,0.0,18.75,0.0,2.788782119750977,0.7339384078979492,0.0,26.25,0.0,2.6764869689941406,0.8322860717773437,0.0,21.75,0.0,2.721548080444336,0.830497932434082,0.0,27.75,,,,,,,,,,,,,,,,,,,,,,,,,,,,,,,,,,,
0.0,3.784351498836713e-09,2.739301443099976,0.9949365377426147,1.7860943835046326e-09,-0.1357175409793853,0.4841124415397644,-4.0693413083658925e-09,-0.12384744733572,0.3385865092277527,0.0,2.736210823059082,0.9295608520507812,0.1917510479688644,19.5,0.0,2.6525259017944336,1.1108781814575197,0.1917510479688644,20.5,0.0,2.550601959228516,1.2160207748413085,0.1917510479688644,13.75,0.0,3.263711929321289,-0.5739067077636719,0.0,23.0,0.0,3.30197811126709,-0.565681266784668,0.0,20.75,0.0,3.056645393371582,0.27009506225585933,0.0,19.25,0.0,2.7762651443481445,0.7832910537719726,0.0,25.75,0.0,2.669692039489746,0.8630420684814453,0.0,21.5,0.0,2.716183662414551,0.8494522094726562,0.0,27.75,,,,,,,,,,,,,,,,,,,,
0.0,2.711113777920104e-09,2.7297635078430176,1.0475498557090759,4.2508219166848e-11,-0.1140813082456588,0.533491313457489,-4.818002441453473e-09,-0.0653383582830429,0.3620027899742126,0.0,2.706527709960937,1.0060932159423828,0.1917510479688644,20.5,0.0,2.6181936264038086,1.0407831192016601,0.1917510479688644,15.25,0.0,2.6775598526000977,1.0182525634765625,0.1917510479688644,22.0,0.0,2.705097198486328,1.0057355880737304,0.1917510479688644,20.75,0.0,3.246188163757324,-0.6275508880615235,0.0,21.75,0.0,3.3245086669921875,-0.5420778274536133,0.0,19.75,0.0,2.681493759155273,0.8172657012939453,0.0,23.0,0.0,3.3974647521972656,2.364721488952637,0.0,17.75,0.0,3.2404661178588867,2.2846128463745123,0.0,21.0,,,,,,,,,,,,,,,,,,,,
0.0,2.246082431156537e-09,2.745814085006714,1.0093504309654235,-9.201650552626005e-10,-0.0620240308344364,0.4350159764289856,-5.086877585824823e-09,7.160007953643799e-06,0.2634797394275665,0.0,2.78627872467041,0.6305839538574218,0.1917510479688644,15.0,0.0,2.742290496826172,0.6427433013916015,0.1917510479688644,17.0,0.0,3.2608509063720703,-0.6590221405029297,0.0,23.0,0.0,3.30197811126709,-0.5925033569335938,0.0,20.75,0.0,3.56447696685791,-0.25883655548095696,0.0,13.0,0.0,3.20291519165039,2.167310905456543,0.0,15.5,0.0,3.2504796981811523,2.289977264404297,0.0,21.25,0.0,3.3849477767944336,2.384033393859864,0.0,18.75,,,,,,,,,,,,,,,,,,,,,,,,,
0.0,1.5228764915775626e-09,2.7566041946411133,0.9196414470672607,-2.0826775859461573e-09,-0.0472347438335418,0.2501596212387085,-5.456274099202574e-09,-0.0064794681966304,0.0906819999217987,0.0,2.893209457397461,0.5597736358642578,-0.1917510479688644,13.25,0.0,2.6911497116088867,0.7854368209838867,0.1917510479688644,16.25,0.0,2.749800682067871,0.7414485931396484,-0.1917510479688644,23.25,0.0,2.788066864013672,0.670280647277832,-0.1917510479688644,22.0,0.0,3.254055976867676,-0.5477998733520508,0.0,22.5,0.0,3.3066272735595703,-0.5538795471191407,0.0,19.75,0.0,3.109574317932129,2.3218061447143556,0.0,13.75,0.0,3.2268762588500977,2.3311044692993166,0.0,19.25,0.0,3.3817291259765625,2.3890401840209963,0.0,16.75,,,,,,,,,,,,,,,,,,,,
0.0,1.0992173837820474e-09,2.7614240646362305,0.8797347068786621,-2.829667167247862e-09,-0.0436732321977615,0.1537822782993316,-5.5700533074798394e-09,-0.0182800125330686,0.0019865036010742,0.0,2.774834632873535,0.6259347915649414,-0.1917510479688644,13.0,0.0,2.845287322998047,0.6166364669799804,-0.1917510479688644,13.0,0.0,3.2340288162231445,-0.5663965225219727,0.0,21.75,0.0,3.283023834228516,-0.6243322372436524,0.0,17.5,0.0,2.955794334411621,0.5354549407958984,0.0,20.75,0.0,3.3087730407714844,2.228465270996094,0.0,19.25,0.0,3.4003257751464844,2.360072326660156,0.0,17.0,,,,,,,,,,,,,,,,,,,,,,,,,,,,,,
0.0,6.717076339590732e-10,2.7450520992279053,0.9063007950782775,-3.5121234809309954e-09,-0.0780693590641021,0.167398989200592,-5.641776823495093e-09,-0.0619711130857467,0.0080240573734045,0.0,2.7376413345336914,0.9485151290893554,-0.1917510479688644,18.0,0.0,2.7573108673095703,0.956382942199707,-0.1917510479688644,18.75,0.0,3.237247467041016,-0.5499456405639649,0.0,21.5,0.0,3.280162811279297,-0.6268356323242188,0.0,17.5,0.0,2.9404163360595703,0.5769397735595703,0.0,21.5,0.0,2.7784109115600586,0.8008148193359375,0.0,29.0,,,,,,,,,,,,,,,,,,,,,,,,,,,,,,,,,,,
0.0,2.535888721233448e-10,2.7135941982269287,0.960657787322998,-4.1167749209591875e-09,-0.1317850947380066,0.2237008363008499,-5.665028890433632e-09,-0.1147875860333442,0.0481145232915878,0.0,2.629995346069336,1.105156135559082,-0.1917510479688644,16.25,0.0,2.6868581771850586,1.061525535583496,-0.1917510479688644,14.25,0.0,3.23331356048584,-0.5971525192260743,0.0,22.25,0.0,3.259420394897461,-0.6869171142578125,0.0,18.5,0.0,2.9436349868774414,0.5508329391479492,0.0,21.5,0.0,2.698659896850586,0.796165657043457,0.0,23.25,0.0,2.74515151977539,0.7940198898315429,0.0,30.25,0.0,2.7762651443481445,0.7840063095092773,0.0,29.25,,,,,,,,,,,,,,,,,,,,,,,,,
0.0,-1.44817088876259e-10,2.7202603816986084,0.8849285364151,-4.633076144955339e-09,-0.1169989854097366,0.0706102401018142,-5.6346771692972206e-09,-0.1033739894628524,-0.0810429006814956,0.0,2.734065055847168,0.6355907440185546,-0.1917510479688644,16.0,0.0,2.785563468933105,0.522580337524414,-0.1917510479688644,13.5,0.0,3.245830535888672,-0.5610321044921875,0.0,22.5,0.0,3.261566162109375,-0.6797645568847657,0.0,19.0,0.0,2.9593706130981445,0.5297328948974609,0.0,21.0,0.0,2.7011632919311523,0.7711317062377929,0.0,22.75,0.0,2.74050235748291,0.7843639373779296,0.0,29.75,0.0,2.7751922607421875,0.7832910537719726,0.0,28.5,,,,,,,,,,,,,,,,,,,,,,,,,
0.0,-4.67517968782971e-10,2.706670999526977,0.8610935926437377,-5.006617342928621e-09,-0.136816993355751,0.0120498053729534,-5.52529533237589e-09,-0.1216937601566314,-0.1240950673818588,0.0,2.711176872253418,0.8083250045776367,-0.1917510479688644,20.0,0.0,2.748727798461914,0.7729198455810546,-0.1917510479688644,18.0,0.0,2.6543140411376958,0.8262063980102539,-0.1917510479688644,14.5,0.0,3.2383203506469727,-0.5488727569580079,0.0,22.0,0.0,3.255486488342285,-0.6565187454223633,0.0,17.5,0.0,2.9278993606567383,0.5637075424194335,0.0,21.25,0.0,3.231167793273926,2.1093751907348635,0.0,13.5,,,,,,,,,,,,,,,,,,,,,,,,,,,,,,
0.0,-8.189660616331195e-10,2.6872000694274902,0.8954005360603332,-5.361565857953111e-09,-0.163114920258522,0.051601056009531,-5.412167602969475e-09,-0.1379779726266861,-0.0840030312538147,0.0,2.7136802673339844,0.9975101470947265,-0.1917510479688644,20.25,0.0,2.69472599029541,1.0314847946166992,-0.1917510479688644,20.25,0.0,3.268003463745117,-0.609311866760254,0.0,17.0,0.0,3.230452537536621,-0.5184743881225586,0.0,21.25,0.0,3.22866439819336,2.127614212036133,0.0,13.5,,,,,,,,,,,,,,,,,,,,,,,,,,,,,,,,,,,,,,,,
0.0,-9.94267446152719e-10,2.7148165702819824,0.8957295536994934,-5.486108012320301e-09,-0.0787857472896575,0.0463771969079971,-5.179410234035231e-09,-0.0186263918876647,-0.0692182332277298,0.0,2.85029411315918,0.8061792373657226,0.1917510479688644,18.75,0.0,2.744436264038086,0.8558895111083984,0.1917510479688644,15.5,0.0,2.8706789016723637,0.8837844848632812,0.1917510479688644,14.0,0.0,2.54201889038086,1.0203983306884765,-0.1917510479688644,12.5,0.0,3.268003463745117,2.1125938415527346,0.0,12.75,0.0,3.283023834228516,2.248134803771973,0.0,18.25,,,,,,,,,,,,,,,,,,,,,,,,,,,,,,,,,,,
0.0,-1.568775331861616e-09,2.7068448066711426,0.900021207332611,0.0,0.0,0.0,0.0,0.0,0.0,0.0,3.247261047363281,-0.3893707275390625,0.0,17.25,0.0,3.3305883407592773,-0.46661834716796874,0.0,14.0,0.0,3.3119916915893555,2.1894838333129885,0.0,16.25,0.0,3.405332565307617,2.352204513549805,0.0,13.5,,,,,,,,,,,,,,,,,,,,,,,,,,,,,,,,,,,,,,,,,,,,,
0.0,-1.32747024483848e-09,2.7138946056365967,0.8626026034355163,2.7691648973870997e-10,-0.0045005809515714,-0.0642397552728653,1.614297168162082e-10,-0.0214446559548378,-0.0561808943748474,0.0,2.781987190246582,0.7060434341430664,-0.1917510479688644,13.5,0.0,2.8084516525268555,0.760760498046875,-0.1917510479688644,14.0,0.0,3.2504796981811523,-0.4902217864990234,0.0,18.25,0.0,2.845287322998047,0.843014907836914,0.0,22.0,0.0,3.283023834228516,2.225246620178223,0.0,15.75,,,,,,,,,,,,,,,,,,,,,,,,,,,,,,,,,,,,,,,,
0.0,-1.0651461934685358e-09,2.717879295349121,0.871175479888916,5.634204214288728e-10,0.02360768802464,-0.045342594385147,3.229548295458073e-10,0.0261854268610477,-0.0349940098822116,0.0,2.6253461837768555,0.8691217422485351,0.1917510479688644,12.5,0.0,2.670764923095703,0.9073879241943359,0.1917510479688644,17.0,0.0,2.727270126342773,0.8834268569946289,0.1917510479688644,14.25,0.0,2.8510093688964844,0.8219148635864257,0.0,22.25,0.0,3.3091306686401367,2.179470252990723,0.0,15.0,0.0,3.4586191177368164,2.2653009414672853,0.0,12.75,,,,,,,,,,,,,,,,,,,,,,,,,,,,,,,,,,,
0.0,-1.0651461934685358e-09,2.717879295349121,0.871175479888916,5.634204214288728e-10,0.02360768802464,-0.045342594385147,3.229548295458073e-10,0.0261854268610477,-0.0349940098822116,0.0,3.249764442443848,-0.4490945816040039,0.0,18.0,0.0,3.3191442489624023,-0.5127523422241211,0.0,15.25,0.0,3.322362899780273,2.13941593170166,0.0,15.0,0.0,3.427863121032715,2.316084098815918,0.0,12.5,,,,,,,,,,,,,,,,,,,,,,,,,,,,,,,,,,,,,,,,,,,,,
0.0,-9.413472223940291e-10,2.7267301082611084,0.865535569190979,6.993754464446056e-10,0.0461475700139999,-0.0521376803517341,4.0006503665424015e-10,0.0553876236081123,-0.0376128889620304,0.0,2.739071846008301,0.7807876586914062,0.1917510479688644,12.25,0.0,2.7780532836914062,0.877347183227539,0.1917510479688644,12.0,0.0,3.2379627227783203,-0.33036212921142577,0.0,15.5,0.0,3.3588409423828125,-0.41261653900146483,0.0,13.0,0.0,2.69937515258789,0.8340742111206054,0.0,22.5,0.0,3.2390356063842773,2.0010139465332033,0.0,12.0,0.0,3.3005475997924805,2.161588859558105,0.0,15.25,0.0,3.4285783767700195,2.3146535873413088,0.0,12.5,,,,,,,,,,,,,,,,,,,,,,,,,
0.0,-9.413472223940291e-10,2.7267301082611084,0.865535569190979,6.993754464446056e-10,0.0461475700139999,-0.0521376803517341,4.0006503665424015e-10,0.0553876236081123,-0.0376128889620304,0.0,3.303408622741699,-0.6118152618408204,0.0,12.75,0.0,3.193974494934082,-0.4959438323974609,0.0,15.0,0.0,2.716183662414551,0.7911588668823242,0.0,21.75,0.0,2.7698278427124023,0.8133317947387695,0.0,30.75,0.0,2.780914306640625,0.8133317947387695,0.0,31.0,0.0,2.85494327545166,0.7807876586914062,0.0,22.5,,,,,,,,,,,,,,,,,,,,,,,,,,,,,,,,,,,
0.0,-8.9308072048766e-10,2.719121217727661,0.8776090860366821,7.550227110186825e-10,0.0292064901441335,-0.0339994393289089,4.3235748314884854e-10,0.0354325845837593,-0.0246476456522941,0.0,2.628922462463379,1.0486509323120117,-0.1917510479688644,12.5,0.0,3.295540809631348,-0.6418560028076172,0.0,13.0,0.0,3.2215118408203125,-0.5059574127197266,0.0,15.25,0.0,2.7140378952026367,0.7292892456054687,0.0,21.25,0.0,2.752304077148437,0.820126724243164,0.0,29.0,0.0,2.853870391845703,0.8186962127685546,0.0,20.25,0.0,2.767324447631836,0.8480216979980468,0.0,29.0,,,,,,,,,,,,,,,,,,,,,,,,,,,,,,
0.0,-8.108776428095155e-10,2.7116734981536865,0.9019787430763244,8.505846027517804e-10,0.0044305156916379,0.00198295712471,4.880953419217349e-10,0.0015977434813976,0.0007579028606414,0.0,2.69472599029541,1.1022951126098632,-0.1917510479688644,17.25,0.0,2.7076005935668945,1.0994340896606445,-0.1917510479688644,18.25,0.0,2.897500991821289,2.7177001953125,-0.1917510479688644,12.25,0.0,3.3055543899536133,-0.6397102355957032,0.0,13.0,0.0,3.245830535888672,-0.4630420684814453,0.0,15.5,0.0,2.71296501159668,0.7242824554443359,0.0,20.5,0.0,2.8603076934814453,0.8283521652221679,0.0,19.5,0.0,2.739071846008301,0.8787776947021484,0.0,28.25,0.0,2.754092216491699,0.8988048553466796,0.0,28.25,,,,,,,,,,,,,,,,,,,,
0.0,-7.424104664366381e-10,2.702728033065796,0.9277457118034362,9.298866676665795e-10,-0.0199197251349687,0.0404916554689407,5.3417326117966e-10,-0.0292338486760854,0.0285557620227336,0.0,2.7219057083129883,1.0443593978881835,-0.1917510479688644,14.25,0.0,2.58779525756836,1.2578632354736328,-0.1917510479688644,15.5,0.0,2.708673477172852,0.763979148864746,0.0,20.5,0.0,2.75266170501709,0.8054639816284179,0.0,28.25,0.0,2.8706789016723637,0.8072521209716796,0.0,19.5,0.0,2.76339054107666,0.8580352783203125,0.0,28.0,,,,,,,,,,,,,,,,,,,,,,,,,,,,,,,,,,,
0.0,-7.424104664366381e-10,2.702728033065796,0.9277457118034362,9.298866676665795e-10,-0.0199197251349687,0.0404916554689407,5.3417326117966e-10,-0.0292338486760854,0.0285557620227336,0.0,3.269791603088379,-0.1594160079956054,0.0,14.25,0.0,2.8846263885498047,0.7460977554321289,0.0,18.0,0.0,2.7573108673095703,0.8580352783203125,0.0,27.0,,,,,,,,,,,,,,,,,,,,,,,,,,,,,,,,,,,,,,,,,,,,,,,,,,
0.0,-7.123447387513693e-10,2.702951431274414,0.9187699079513549,9.645885201692295e-10,-0.0232461355626583,0.0247908923774957,5.54374046668471e-10,-0.0365242213010787,0.014536814764142,0.0,2.72369384765625,0.7553960800170898,-0.1917510479688644,13.25,0.0,3.276944160461426,-0.21913986206054686,0.0,16.5,,,,,,,,,,,,,,,,,,,,,,,,,,,,,,,,,,,,,,,,,,,,,,,,,,,,,,,
0.0,-6.347917191895647e-10,2.6991231441497803,0.9102411985397338,1.053890530400281e-09,-0.0385187268257141,0.0079557001590728,6.061873780716097e-10,-0.0604264102876186,-0.0024872161448001,0.0,2.627491950988769,0.8237030029296875,-0.1917510479688644,13.0,0.0,2.6907920837402344,0.8569623947143554,-0.1917510479688644,17.25,0.0,2.741217613220215,0.8977319717407226,-0.1917510479688644,15.5,0.0,2.9439926147460938,0.625577163696289,0.0,16.75,0.0,2.6990175247192383,0.7475282669067382,0.0,19.75,0.0,2.740144729614258,0.7818605422973632,0.0,26.25,,,,,,,,,,,,,,,,,,,,,,,,,,,,,,,,,,,
0.0,-5.924846724347788e-10,2.704115390777588,0.8935075521469116,1.103229396726135e-09,-0.0391284562647342,-0.0212456658482551,6.350808212651771e-10,-0.0699991881847381,-0.0283666308969259,0.0,2.785205841064453,0.6928112030029296,-0.1917510479688644,16.75,0.0,2.7959346771240234,0.7260705947875976,-0.1917510479688644,17.0,0.0,3.3066272735595703,-0.1994703292846679,0.0,17.0,0.0,3.396034240722656,-0.1662109375,0.0,13.5,0.0,2.895355224609375,0.7940198898315429,0.0,16.0,0.0,2.6786327362060547,0.8537437438964843,0.0,18.75,0.0,2.739071846008301,0.829425048828125,0.0,26.25,0.0,2.754807472229004,0.8290674209594726,0.0,25.5,,,,,,,,,,,,,,,,,,,,,,,,,
0.0,-5.332366770360862e-10,2.7186453342437744,0.8836583018302917,1.1685695744390046e-09,-0.0102177411317825,-0.0349759384989738,6.726520451749707e-10,-0.0372227355837821,-0.0366202108561992,0.0,3.1725168228149414,-0.9712312698364258,-0.1917510479688644,14.25,0.0,3.225088119506836,-0.9394023895263672,-0.1917510479688644,15.0,0.0,2.81667709350586,0.786867332458496,0.1917510479688644,22.5,0.0,2.817034721374512,0.7646944046020507,0.1917510479688644,24.5,0.0,2.8874874114990234,0.8698369979858398,0.1917510479688644,17.5,0.0,3.24404239654541,-0.6336305618286133,0.0,17.5,0.0,3.345966339111328,-0.4959438323974609,0.0,15.75,0.0,2.9178857803344727,0.6717111587524414,0.0,17.5,0.0,2.670764923095703,0.8930828094482421,0.0,20.5,0.0,2.7229785919189453,0.8844997406005859,0.0,27.75,0.0,2.7447938919067383,0.8651878356933593,0.0,26.75,,,,,,,,,,
0.0,-5.332366770360862e-10,2.7186453342437744,0.8836583018302917,1.1685695744390046e-09,-0.0102177411317825,-0.0349759384989738,6.726520451749707e-10,-0.0372227355837821,-0.0366202108561992,0.0,3.242969512939453,-0.7981393814086915,-0.1917510479688644,13.0,0.0,3.255486488342285,-0.7766817092895508,-0.1917510479688644,13.75,0.0,3.2236576080322266,-0.7512901306152344,0.0,18.25,0.0,3.27908992767334,-0.7026527404785157,0.0,17.0,0.0,2.905726432800293,0.7500316619873046,0.0,18.0,0.0,2.6661157608032227,0.9063150405883789,0.0,19.5,0.0,2.72977352142334,0.8923675537109375,0.0,27.0,0.0,2.753734588623047,0.8673336029052734,0.0,26.75,0.0,3.1735897064208984,2.390828323364258,0.0,14.0,,,,,,,,,,,,,,,,,,,,
0.0,-5.034819228200148e-10,2.722355604171753,0.8675221920013427,1.2033873897365766e-09,-0.0117650143802165,-0.0626363530755043,6.930089835321951e-10,-0.046669416129589,-0.060791153460741,0.0,2.8145313262939453,0.6177093505859375,-0.1917510479688644,17.5,0.0,2.771258354187012,0.6738569259643554,-0.1917510479688644,18.0,0.0,3.338813781738281,2.144422721862793,0.1917510479688644,16.25,0.0,3.4096240997314453,2.345051956176758,0.1917510479688644,13.5,0.0,3.293037414550781,-0.6629560470581055,0.0,18.0,0.0,2.670764923095703,0.8984472274780273,0.0,19.25,0.0,2.7322769165039062,0.8855726242065429,0.0,27.0,0.0,2.748727798461914,0.8709098815917968,0.0,26.5,0.0,3.276228904724121,2.2270347595214846,0.0,16.5,0.0,3.474712371826172,2.238121223449707,0.0,13.25,,,,,,,,,,,,,,,
0.0,-4.6405829179363417e-10,2.7194783687591557,0.8644002795219421,1.248788739083295e-09,-0.0234054308384656,-0.0691422820091247,7.191804374251375e-10,-0.0646155774593353,-0.0679307654500007,0.0,2.743721008300781,0.8165504455566406,-0.1917510479688644,17.0,0.0,2.6618242263793945,0.8237030029296875,-0.1917510479688644,13.25,0.0,2.7025938034057617,0.8576776504516601,-0.1917510479688644,19.0,0.0,2.672553062438965,0.8930828094482421,0.0,19.0,0.0,2.726912498474121,0.9041692733764648,0.0,27.0,0.0,2.734065055847168,0.9181167602539062,0.0,26.25,0.0,2.8688907623291016,0.9277727127075195,0.0,16.75,0.0,3.26693058013916,2.2595788955688483,0.0,16.75,0.0,3.4525394439697266,2.2756721496582033,0.0,14.0,,,,,,,,,,,,,,,,,,,,
0.0,-4.414549281683833e-10,2.72644591331482,0.8368359327316284,1.275285765878209e-09,-0.0185396429151296,-0.1146562322974205,7.347311092864571e-10,-0.0675881430506706,-0.1059433817863464,0.0,2.8063058853149414,0.3609325408935547,-0.1917510479688644,13.5,0.0,2.834200859069824,0.4113580703735351,-0.1917510479688644,13.0,0.0,2.6428699493408203,0.9177591323852539,0.0,19.75,0.0,2.70688533782959,0.9005929946899414,0.0,25.75,0.0,2.7408599853515625,0.901308250427246,0.0,24.75,0.0,2.8728246688842773,0.9588863372802734,0.0,16.0,0.0,3.401041030883789,2.358641815185547,0.0,14.75,0.0,3.153204917907715,2.2323991775512693,0.0,12.25,0.0,3.220796585083008,2.329673957824707,0.0,18.0,,,,,,,,,,,,,,,,,,,,
0.0,-4.1077946599799015e-10,2.727336883544922,0.8175116300582885,1.310337838233977e-09,-0.0217223837971687,-0.1461965590715408,7.548808800272865e-10,-0.0763345956802368,-0.1322637051343917,0.0,3.2454729080200195,-0.6043050765991211,-0.1917510479688644,14.5,0.0,3.27908992767334,-0.6640289306640625,-0.1917510479688644,13.75,0.0,2.7233362197875977,0.6034042358398437,-0.1917510479688644,18.5,0.0,2.7866363525390625,0.5447532653808593,-0.1917510479688644,15.0,0.0,2.683281898498535,0.6434585571289062,-0.1917510479688644,14.25,0.0,2.665400505065918,0.8290674209594726,0.0,20.25,0.0,2.7208328247070312,0.8254911422729492,0.0,26.0,0.0,2.7483701705932617,0.8494522094726562,0.0,24.75,0.0,2.88248062133789,0.9206201553344726,0.0,15.75,,,,,,,,,,,,,,,,,,,,
0.0,-3.9267544771348634e-10,2.726447343826294,0.8167855262756347,1.3311972635321467e-09,-0.027235647663474,-0.1477657407522201,7.668697343810037e-10,-0.0854133144021034,-0.1342089176177978,0.0,2.69472599029541,0.8061792373657226,-0.1917510479688644,15.0,0.0,2.761244773864746,0.7947351455688476,-0.1917510479688644,12.5,0.0,2.904653549194336,0.8043910980224609,0.0,16.5,0.0,3.4210681915283203,2.3268129348754885,0.0,16.5,0.0,3.087759017944336,2.349343490600586,0.0,13.0,0.0,3.246903419494629,2.306785774230957,0.0,19.75,,,,,,,,,,,,,,,,,,,,,,,,,,,,,,,,,,,
0.0,-3.678584659105865e-10,2.7241761684417725,0.8058376431465148,1.359050205707035e-09,-0.0326621457934379,-0.1651312410831451,7.826576609026857e-10,-0.0932033136487007,-0.1484274417161941,0.0,2.7358531951904297,0.5172159194946289,-0.1917510479688644,12.75,0.0,2.651453018188477,0.7471706390380859,-0.1917510479688644,15.0,0.0,2.6772022247314453,0.6899501800537109,-0.1917510479688644,18.75,0.0,3.2275915145874023,-0.7949207305908204,0.0,19.25,0.0,3.261566162109375,-0.7709596633911131,0.0,17.5,0.0,3.414273262023926,2.3375417709350588,0.0,17.0,0.0,3.0623674392700195,2.390828323364258,0.0,13.75,0.0,3.2300949096679688,2.329673957824707,0.0,20.25,,,,,,,,,,,,,,,,,,,,,,,,,
0.0,-3.678584659105865e-10,2.7241761684417725,0.8058376431465148,1.359050205707035e-09,-0.0326621457934379,-0.1651312410831451,7.826576609026857e-10,-0.0932033136487007,-0.1484274417161941,0.0,3.242969512939453,2.3361112594604494,-0.1917510479688644,12.75,0.0,3.276586532592773,-0.5663965225219727,0.0,19.5,0.0,3.3005475997924805,-0.6078813552856446,0.0,17.5,0.0,2.9633045196533203,0.5565549850463867,0.0,13.5,0.0,3.4428834915161133,2.2917654037475588,0.0,17.75,0.0,3.1478404998779297,2.2985603332519533,0.0,14.0,0.0,3.255128860473633,2.2978450775146486,0.0,20.75,,,,,,,,,,,,,,,,,,,,,,,,,,,,,,
0.0,-3.4639299761884956e-10,2.721911668777466,0.8150786280632019,1.3839368540047303e-09,-0.0426119342446327,-0.1509335935115814,7.969455095846455e-10,-0.1078083887696266,-0.1379904597997665,0.0,2.6460886001586914,0.9402896881103515,-0.1917510479688644,12.75,0.0,2.7115345001220703,0.9503032684326171,-0.1917510479688644,20.0,0.0,2.743721008300781,0.9288455963134765,-0.1917510479688644,19.25,0.0,3.236532211303711,2.282467079162598,-0.1917510479688644,14.75,0.0,3.2712221145629883,-0.5799863815307618,0.0,20.5,0.0,3.295540809631348,-0.6189678192138672,0.0,18.25,0.0,3.0652284622192383,0.16852874755859382,0.0,14.5,0.0,3.2644271850585938,2.287831497192383,0.0,21.0,0.0,3.4503936767578125,2.2792484283447267,0.0,18.25,0.0,3.1321048736572266,2.304640007019043,0.0,14.5,,,,,,,,,,,,,,,
0.0,-3.3340460947606227e-10,2.7195520401000977,0.825724971294403,1.3989894798172031e-09,-0.0503937527537345,-0.1343526691198349,8.055590083877461e-10,-0.1181357651948928,-0.1253513544797897,0.0,2.6578903198242188,1.0693933486938476,-0.1917510479688644,14.75,0.0,2.69937515258789,1.0465051651000976,-0.1917510479688644,13.75,0.0,3.254055976867676,2.2799636840820314,-0.1917510479688644,12.25,0.0,3.2787322998046875,-0.5556676864624024,0.0,22.0,0.0,3.2912492752075195,-0.5860660552978516,0.0,19.75,0.0,3.12495231628418,0.09020824432373051,0.0,15.5,0.0,3.2755136489868164,2.271738243103028,0.0,20.5,0.0,3.443598747253418,2.2903348922729494,0.0,17.5,0.0,3.131389617919922,2.301421356201172,0.0,14.25,,,,,,,,,,,,,,,,,,,,
0.0,-3.154293215512638e-10,2.7161130905151367,0.8329033374786377,1.4193897168723881e-09,-0.0591574870049953,-0.123210459947586,8.171137100276836e-10,-0.1290586292743683,-0.1170414835214614,0.0,2.621769905090332,0.9338523864746093,-0.1917510479688644,14.25,0.0,2.6711225509643555,0.9427930831909179,-0.1917510479688644,19.25,0.0,2.708315849304199,0.934567642211914,-0.1917510479688644,16.5,0.0,3.1163692474365234,-0.1833770751953125,0.0,17.5,0.0,3.040194511413574,0.3065731048583984,0.0,17.5,,,,,,,,,,,,,,,,,,,,,,,,,,,,,,,,,,,,,,,,
0.0,-3.154293215512638e-10,2.7161130905151367,0.8329033374786377,1.4193897168723881e-09,-0.0591574870049953,-0.123210459947586,8.171137100276836e-10,-0.1290586292743683,-0.1170414835214614,0.0,3.0205249786376958,0.4027750015258789,0.0,18.25,0.0,3.1986236572265625,2.2195245742797853,0.0,18.5,0.0,3.270864486694336,2.2581483840942385,0.0,24.25,0.0,3.413558006286621,2.3386146545410162,0.0,21.25,,,,,,,,,,,,,,,,,,,,,,,,,,,,,,,,,,,,,,,,,,,,,
0.0,-3.154293215512638e-10,2.7161130905151367,0.8329033374786377,1.4193897168723881e-09,-0.0591574870049953,-0.123210459947586,8.171137100276836e-10,-0.1290586292743683,-0.1170414835214614,0.0,2.9604434967041016,0.6148483276367187,0.0,18.25,0.0,3.222584724426269,2.180900764465332,0.0,19.5,0.0,3.278017044067383,2.2424127578735353,0.0,25.0,0.0,3.4067630767822266,2.3497011184692385,0.0,21.75,,,,,,,,,,,,,,,,,,,,,,,,,,,,,,,,,,,,,,,,,,,,,
0.0,-3.154293215512638e-10,2.7161130905151367,0.8329033374786377,1.4193897168723881e-09,-0.0591574870049953,-0.123210459947586,8.171137100276836e-10,-0.1290586292743683,-0.1170414835214614,0.0,3.28981876373291,2.2395517349243166,0.1917510479688644,13.0,0.0,3.0895471572875977,0.018682670593261813,0.0,18.5,0.0,3.1800270080566406,2.2291805267333986,0.0,18.5,0.0,3.267645835876465,2.261724662780762,0.0,24.0,0.0,3.405690193176269,2.3511316299438483,0.0,20.75,,,,,,,,,,,,,,,,,,,,,,,,,,,,,,,,,,,,,,,,
0.0,-3.0890023872132133e-10,2.7170228958129883,0.8312189698219299,1.4263562553296083e-09,-0.0541103780269622,-0.1253526955842971,8.211598068186277e-10,-0.121059849858284,-0.1180255413055419,0.0,2.7315616607666016,0.7482435226440429,0.1917510479688644,13.75,0.0,3.083467483520508,-0.04354457855224608,0.0,18.75,0.0,2.918243408203125,0.7303621292114257,0.0,18.5,0.0,2.697229385375977,0.9034540176391601,0.0,31.0,0.0,2.7219057083129883,0.8984472274780273,0.0,29.25,0.0,3.2318830490112305,2.165522766113281,0.0,19.25,0.0,3.261923789978028,2.2667314529418947,0.0,24.75,0.0,3.396749496459961,2.365794372558594,0.0,21.25,,,,,,,,,,,,,,,,,,,,,,,,,
0.0,-3.0890023872132133e-10,2.7170228958129883,0.8312189698219299,1.4263562553296083e-09,-0.0541103780269622,-0.1253526955842971,8.211598068186277e-10,-0.121059849858284,-0.1180255413055419,0.0,2.891778945922852,0.8401538848876953,0.0,18.5,0.0,2.6578903198242188,0.8630420684814453,0.0,25.0,0.0,2.697587013244629,0.8995201110839843,0.0,31.0,0.0,2.7208328247070312,0.8998777389526367,0.0,29.25,0.0,3.257632255554199,2.2760297775268556,0.0,25.0,0.0,3.393173217773437,2.371158790588379,0.0,22.0,0.0,3.1785964965820312,2.2756721496582033,0.0,19.75,,,,,,,,,,,,,,,,,,,,,,,,,,,,,,
0.0,-2.9071720031303977e-10,2.721853017807007,0.8134496927261352,1.4456228436543483e-09,-0.0351802334189415,-0.1521189659833908,8.323802203058506e-10,-0.0939808785915374,-0.1372903883457183,0.0,2.6890039443969727,0.5772974014282226,0.1917510479688644,13.75,0.0,2.751946449279785,0.5118515014648437,0.1917510479688644,18.75,0.0,2.797722816467285,0.4853870391845703,0.1917510479688644,16.25,0.0,3.055572509765625,2.5567676544189455,0.1917510479688644,13.75,0.0,3.001570701599121,0.31014938354492183,0.0,19.0,0.0,2.6553869247436523,0.8712675094604492,0.0,25.0,0.0,2.706170082092285,0.8576776504516601,0.0,31.0,0.0,2.7358531951904297,0.8376504898071289,0.0,29.25,,,,,,,,,,,,,,,,,,,,,,,,,
0.0,-2.745264293668725e-10,2.7259011268615723,0.8015579104423523,1.4629681910349746e-09,-0.0191942881792783,-0.170242965221405,8.425580788617991e-10,-0.0708487406373024,-0.1503193974494934,0.0,2.722620964050293,0.5980398178100585,0.1917510479688644,13.5,0.0,2.7698278427124023,0.5966093063354492,0.1917510479688644,20.5,0.0,2.775907516479492,0.5998279571533203,0.1917510479688644,19.0,0.0,2.960085868835449,0.39276142120361324,0.0,18.75,0.0,2.720475196838379,0.8047487258911132,0.0,31.25,0.0,2.7440786361694336,0.7954504013061523,0.0,29.75,0.0,2.66718864440918,0.8355047225952148,0.0,25.5,,,,,,,,,,,,,,,,,,,,,,,,,,,,,,
0.0,-2.648307406705186e-10,2.730403184890747,0.7904169678688049,1.4736556419592262e-09,-0.007525130175054,-0.1879953742027282,8.48958237043007e-10,-0.0563484244048595,-0.1640400141477584,0.0,2.812743186950684,0.4893209457397461,0.1917510479688644,20.75,0.0,2.822756767272949,0.4796649932861328,0.1917510479688644,20.5,0.0,2.7358531951904297,0.7511045455932617,0.0,29.75,0.0,2.766251564025879,0.7053281784057617,0.0,28.5,0.0,2.673983573913574,0.8101131439208984,0.0,23.75,,,,,,,,,,,,,,,,,,,,,,,,,,,,,,,,,,,,,,,,
0.0,-2.555689271321881e-10,2.730360984802246,0.7945271253585815,1.48364753815855e-09,-0.0021927230991423,-0.1812824159860611,8.548210472802963e-10,-0.0460522323846817,-0.1580968350172042,0.0,2.702951431274414,0.8483793258666992,0.1917510479688644,15.75,0.0,2.7108192443847656,0.9942914962768554,0.1917510479688644,13.5,0.0,3.251194953918457,2.287831497192383,0.1917510479688644,14.5,0.0,2.7555227279663086,0.7879402160644531,0.0,27.5,0.0,2.6689767837524414,0.8473064422607421,0.0,22.5,,,,,,,,,,,,,,,,,,,,,,,,,,,,,,,,,,,,,,,,
0.0,-2.4704138734676917e-10,2.731785774230957,0.7970404744148254,1.493125512119775e-09,0.0037784953601658,-0.1773351281881332,8.604872370199245e-10,-0.0367519855499267,-0.1545968204736709,0.0,2.7408599853515625,0.899162483215332,0.1917510479688644,14.5,0.0,2.784848213195801,0.8583929061889648,0.1917510479688644,15.0,0.0,3.2318830490112305,2.275314521789551,0.1917510479688644,15.0,0.0,2.6503801345825195,0.8755590438842773,0.0,22.75,0.0,3.1714439392089844,2.3250247955322267,0.0,19.25,,,,,,,,,,,,,,,,,,,,,,,,,,,,,,,,,,,,,,,,
0.0,-2.4704138734676917e-10,2.731785774230957,0.7970404744148254,1.493125512119775e-09,0.0037784953601658,-0.1773351281881332,8.604872370199245e-10,-0.0367519855499267,-0.1545968204736709,0.0,3.268718719482422,2.271738243103028,0.1917510479688644,13.75,0.0,3.4024715423583984,2.356496047973633,0.0,20.25,0.0,3.17537784576416,2.28425521850586,0.0,19.25,0.0,3.243684768676758,2.278533172607422,0.0,24.25,,,,,,,,,,,,,,,,,,,,,,,,,,,,,,,,,,,,,,,,,,,,,
0.0,-2.4278751231676665e-10,2.730698823928833,0.7983793139457702,1.4974769202424911e-09,0.0059127463027834,-0.1748162060976028,8.629710834817671e-10,-0.0311485175043344,-0.1520406901836395,0.0,2.626776695251465,0.8744861602783203,0.1917510479688644,14.75,0.0,3.2390356063842773,2.2874738693237306,0.0,24.0,0.0,3.3903121948242188,2.37580795288086,0.0,20.75,,,,,,,,,,,,,,,,,,,,,,,,,,,,,,,,,,,,,,,,,,,,,,,,,,
0.0,-2.3497181977916165e-10,2.731893301010132,0.7979106426239013,1.506035074427814e-09,0.0121258720755577,-0.1754161119461059,8.680680618766701e-10,-0.0213071387261152,-0.1520183086395263,0.0,2.7294158935546875,0.8194114685058593,0.1917510479688644,13.75,0.0,2.777695655822754,0.7546808242797851,0.1917510479688644,13.0,0.0,3.0165910720825195,0.1535083770751954,0.0,17.25,0.0,2.724766731262207,0.5815889358520507,0.0,20.5,0.0,2.778768539428711,0.5894567489624023,0.0,27.5,0.0,2.797722816467285,0.5840923309326171,0.0,26.5,0.0,3.4132003784179688,2.3393299102783205,0.0,19.5,0.0,3.139615058898926,2.318229866027832,0.0,17.5,0.0,3.246188163757324,2.286758613586426,0.0,22.75,,,,,,,,,,,,,,,,,,,,
0.0,-2.3497181977916165e-10,2.731893301010132,0.7979106426239013,1.506035074427814e-09,0.0121258720755577,-0.1754161119461059,8.680680618766701e-10,-0.0213071387261152,-0.1520183086395263,0.0,2.985835075378418,0.46178359985351564,0.0,17.0,0.0,2.781987190246582,0.5948211669921875,0.0,27.5,0.0,2.714395523071289,0.649538230895996,0.0,20.5,0.0,3.268003463745117,2.2728111267089846,0.0,20.75,0.0,3.436446189880371,2.302136611938477,0.0,18.0,0.0,3.117799758911133,2.327528190612793,0.0,15.0,,,,,,,,,,,,,,,,,,,,,,,,,,,,,,,,,,,
0.0,-2.3497181977916165e-10,2.731893301010132,0.7979106426239013,1.506035074427814e-09,0.0121258720755577,-0.1754161119461059,8.680680618766701e-10,-0.0213071387261152,-0.1520183086395263,0.0,3.0355453491210938,0.2157356262207031,0.0,18.25,0.0,2.781987190246582,0.5937482833862304,0.0,25.75,0.0,2.818822860717773,0.5883838653564453,0.0,25.25,0.0,2.680063247680664,0.760760498046875,0.0,19.5,0.0,3.2712221145629883,2.0228292465209963,0.0,13.5,0.0,3.426432609558105,2.3185874938964846,0.0,16.0,0.0,3.231525421142578,2.3164417266845705,0.0,18.75,,,,,,,,,,,,,,,,,,,,,,,,,,,,,,
0.0,-2.3497181977916165e-10,2.731893301010132,0.7979106426239013,1.506035074427814e-09,0.0121258720755577,-0.1754161119461059,8.680680618766701e-10,-0.0213071387261152,-0.1520183086395263,0.0,3.090977668762207,-0.018510627746581992,0.0,17.75,0.0,2.6578903198242188,0.8004571914672851,0.0,19.25,0.0,2.7480125427246094,0.6820823669433593,0.0,24.5,0.0,2.800583839416504,0.6709959030151367,0.0,23.25,0.0,3.428220748901367,2.315726470947266,0.0,16.75,0.0,3.137826919555664,2.2706653594970705,0.0,14.5,0.0,3.2268762588500977,2.323236656188965,0.0,19.75,,,,,,,,,,,,,,,,,,,,,,,,,,,,,,
0.0,-2.3497181977916165e-10,2.731893301010132,0.7979106426239013,1.506035074427814e-09,0.0121258720755577,-0.1754161119461059,8.680680618766701e-10,-0.0213071387261152,-0.1520183086395263,0.0,3.2508373260498047,-0.5048845291137696,0.0,21.75,0.0,3.34024429321289,-0.440869140625,0.0,18.0,0.0,3.085613250732422,0.002947044372558605,0.0,17.0,0.0,3.4017562866210938,2.35756893157959,0.0,17.75,0.0,3.186464309692383,2.375450325012207,0.0,21.0,0.0,2.99835205078125,2.4920370101928713,0.0,16.25,,,,,,,,,,,,,,,,,,,,,,,,,,,,,,,,,,,
0.0,-2.3191605580397123e-10,2.7319564819335938,0.7955700874328613,1.5095225069927663e-09,0.0107334312051534,-0.1792027354240417,8.700026810082305e-10,-0.0241711921989917,-0.1552253514528274,0.0,2.739429473876953,0.6438161849975585,-0.1917510479688644,13.0,0.0,3.231167793273926,-0.5023811340332032,0.0,19.0,0.0,3.337383270263672,-0.4884336471557617,0.0,16.25,0.0,3.01516056060791,0.2286102294921875,0.0,17.75,0.0,2.683281898498535,0.7131959915161132,0.0,20.5,0.0,3.413915634155273,2.338257026672364,0.0,16.5,0.0,3.2079219818115234,2.3604299545288088,0.0,19.5,0.0,2.962589263916016,2.5607015609741213,0.0,14.0,,,,,,,,,,,,,,,,,,,,,,,,,
0.0,-2.3191605580397123e-10,2.7319564819335938,0.7955700874328613,1.5095225069927663e-09,0.0107334312051534,-0.1792027354240417,8.700026810082305e-10,-0.0241711921989917,-0.1552253514528274,0.0,3.2243728637695312,-0.5592439651489258,0.0,19.0,0.0,3.3059120178222656,-0.5721185684204102,0.0,16.0,0.0,3.0155181884765625,0.1517202377319336,0.0,17.5,0.0,2.9407739639282227,2.5878812789916994,0.0,13.0,,,,,,,,,,,,,,,,,,,,,,,,,,,,,,,,,,,,,,,,,,,,,
0.0,-2.3191605580397123e-10,2.7319564819335938,0.7955700874328613,1.5095225069927663e-09,0.0107334312051534,-0.1792027354240417,8.700026810082305e-10,-0.0241711921989917,-0.1552253514528274,0.0,3.235459327697754,-0.553164291381836,0.0,19.75,0.0,3.290891647338867,-0.6150339126586915,0.0,16.75,0.0,2.678990364074707,0.7371570587158203,0.0,20.5,0.0,2.9325485229492188,2.588596534729004,0.0,12.75,,,,,,,,,,,,,,,,,,,,,,,,,,,,,,,,,,,,,,,,,,,,,
0.0,-2.232103946120389e-10,2.732593536376953,0.7861173868179321,1.5194275837515647e-09,0.0075549203902482,-0.1943857371807098,8.754889591067182e-10,-0.0317247323691844,-0.1678436398506164,0.0,2.696514129638672,0.6248619079589843,-0.1917510479688644,12.25,0.0,2.744436264038086,0.5826618194580078,-0.1917510479688644,17.5,0.0,2.7816295623779297,0.5519058227539062,-0.1917510479688644,15.0,0.0,3.21042537689209,-0.6257627487182618,0.0,20.0,0.0,3.301262855529785,-0.5692575454711915,0.0,16.0,0.0,3.017306327819824,0.2268220901489257,0.0,18.25,0.0,2.7015209197998047,0.6903078079223632,0.0,20.25,,,,,,,,,,,,,,,,,,,,,,,,,,,,,,
0.0,-2.1788915116616178e-10,2.734740257263184,0.7771970152854919,1.52572032785514e-09,0.0069764354266226,-0.2088499069213867,8.79057826530527e-10,-0.0365169756114482,-0.1798785775899887,0.0,2.833127975463867,0.4553462982177734,-0.1917510479688644,12.0,0.0,2.773761749267578,0.4932548522949219,-0.1917510479688644,13.75,0.0,3.191471099853516,-0.7083747863769532,0.0,20.25,0.0,3.243327140808105,-0.7412765502929688,0.0,16.25,0.0,3.005862236022949,0.18247623443603522,0.0,17.5,,,,,,,,,,,,,,,,,,,,,,,,,,,,,,,,,,,,,,,,
0.0,-2.1788915116616178e-10,2.734740257263184,0.7771970152854919,1.52572032785514e-09,0.0069764354266226,-0.2088499069213867,8.79057826530527e-10,-0.0365169756114482,-0.1798785775899887,0.0,3.21650505065918,-0.5992982864379883,0.0,20.5,0.0,3.268718719482422,-0.6078813552856446,0.0,17.0,0.0,3.041982650756836,0.10057945251464852,0.0,18.25,0.0,3.2236576080322266,2.302494239807129,0.0,14.25,,,,,,,,,,,,,,,,,,,,,,,,,,,,,,,,,,,,,,,,,,,,,
0.0,-2.1788915116616178e-10,2.734740257263184,0.7771970152854919,1.52572032785514e-09,0.0069764354266226,-0.2088499069213867,8.79057826530527e-10,-0.0365169756114482,-0.1798785775899887,0.0,3.2089948654174805,-0.6558034896850586,0.0,22.0,0.0,3.2268762588500977,-0.7298324584960938,0.0,18.5,0.0,3.058433532714844,-0.20733814239501946,0.0,17.5,0.0,2.754092216491699,0.6212856292724609,0.0,27.75,0.0,2.7927160263061523,0.5762245178222656,0.0,25.75,0.0,2.706170082092285,0.6674196243286132,0.0,22.0,0.0,3.3152103424072266,2.18519229888916,0.0,14.0,,,,,,,,,,,,,,,,,,,,,,,,,,,,,,
0.0,-2.1788915116616178e-10,2.734740257263184,0.7771970152854919,1.52572032785514e-09,0.0069764354266226,-0.2088499069213867,8.79057826530527e-10,-0.0365169756114482,-0.1798785775899887,0.0,3.0881166458129883,-0.3135536193847656,0.0,16.0,0.0,2.742290496826172,0.6277229309082031,0.0,26.25,0.0,2.78627872467041,0.5697872161865234,0.0,23.75,0.0,2.694368362426758,0.6742145538330078,0.0,21.0,,,,,,,,,,,,,,,,,,,,,,,,,,,,,,,,,,,,,,,,,,,,,
0.0,-2.1788915116616178e-10,2.734740257263184,0.7771970152854919,1.52572032785514e-09,0.0069764354266226,-0.2088499069213867,8.79057826530527e-10,-0.0365169756114482,-0.1798785775899887,0.0,3.068089485168457,-0.04783611297607418,0.0,15.5,0.0,2.785921096801758,0.6187822341918945,0.0,23.0,0.0,2.6764869689941406,0.7393028259277343,0.0,20.75,0.0,2.7265548706054688,0.6906654357910156,0.0,25.75,,,,,,,,,,,,,,,,,,,,,,,,,,,,,,,,,,,,,,,,,,,,,
0.0,-2.1788915116616178e-10,2.734740257263184,0.7771970152854919,1.52572032785514e-09,0.0069764354266226,-0.2088499069213867,8.79057826530527e-10,-0.0365169756114482,-0.1798785775899887,0.0,3.26693058013916,-0.5739067077636719,0.0,22.25,0.0,3.307342529296875,-0.5263422012329102,0.0,19.75,0.0,2.780914306640625,0.6316568374633789,0.0,23.25,0.0,2.681493759155273,0.7135536193847656,0.0,21.0,0.0,2.7304887771606445,0.6745721817016601,0.0,26.0,,,,,,,,,,,,,,,,,,,,,,,,,,,,,,,,,,,,,,,,
0.0,-2.1788915116616178e-10,2.734740257263184,0.7771970152854919,1.52572032785514e-09,0.0069764354266226,-0.2088499069213867,8.79057826530527e-10,-0.0365169756114482,-0.1798785775899887,0.0,3.2612085342407227,-0.5728338241577149,0.0,23.0,0.0,3.10671329498291,-0.3943775177001953,0.0,16.0,0.0,3.28981876373291,-0.5374286651611329,0.0,19.75,0.0,2.779841423034668,0.6377365112304687,0.0,23.0,0.0,2.670407295227051,0.7561113357543945,0.0,20.0,0.0,2.739429473876953,0.658836555480957,0.0,25.25,,,,,,,,,,,,,,,,,,,,,,,,,,,,,,,,,,,
0.0,-2.1788915116616178e-10,2.734740257263184,0.7771970152854919,1.52572032785514e-09,0.0069764354266226,-0.2088499069213867,8.79057826530527e-10,-0.0365169756114482,-0.1798785775899887,0.0,3.231167793273926,-0.623974609375,0.0,21.5,0.0,3.2819509506225586,-0.5739067077636719,0.0,18.0,0.0,3.06558609008789,-0.0324581146240234,0.0,16.75,0.0,2.662897109985352,0.8036758422851562,0.0,21.5,,,,,,,,,,,,,,,,,,,,,,,,,,,,,,,,,,,,,,,,,,,,,
0.0,-2.1788915116616178e-10,2.734740257263184,0.7771970152854919,1.52572032785514e-09,0.0069764354266226,-0.2088499069213867,8.79057826530527e-10,-0.0365169756114482,-0.1798785775899887,0.0,3.255844116210937,-0.5842779159545899,0.0,20.75,0.0,3.0988454818725586,-0.3428791046142578,0.0,14.5,0.0,3.300905227661133,-0.530276107788086,0.0,17.25,0.0,2.63822078704834,0.8394386291503906,0.0,20.5,,,,,,,,,,,,,,,,,,,,,,,,,,,,,,,,,,,,,,,,,,,,,
0.0,-2.1788915116616178e-10,2.734740257263184,0.7771970152854919,1.52572032785514e-09,0.0069764354266226,-0.2088499069213867,8.79057826530527e-10,-0.0365169756114482,-0.1798785775899887,0.0,3.243684768676758,-0.6418560028076172,0.0,21.5,0.0,3.2715797424316406,-0.6350610733032227,0.0,18.25,0.0,3.1038522720336914,-0.1883838653564453,0.0,14.75,0.0,2.7118921279907227,0.7532503128051757,0.0,24.25,0.0,2.6410818099975586,0.8176233291625976,0.0,20.5,,,,,,,,,,,,,,,,,,,,,,,,,,,,,,,,,,,,,,,,
0.0,-2.1788915116616178e-10,2.734740257263184,0.7771970152854919,1.52572032785514e-09,0.0069764354266226,-0.2088499069213867,8.79057826530527e-10,-0.0365169756114482,-0.1798785775899887,0.0,3.267645835876465,-0.5835626602172852,0.0,19.75,0.0,3.312349319458008,-0.5402896881103516,0.0,16.75,0.0,2.649664878845215,0.8004571914672851,0.0,20.25,0.0,2.768397331237793,0.7900859832763671,0.0,23.25,0.0,2.896428108215332,0.8884336471557617,0.0,15.5,0.0,3.2662153244018555,2.038922500610352,0.0,13.0,,,,,,,,,,,,,,,,,,,,,,,,,,,,,,,,,,,
0.0,-2.1788915116616178e-10,2.734740257263184,0.7771970152854919,1.52572032785514e-09,0.0069764354266226,-0.2088499069213867,8.79057826530527e-10,-0.0365169756114482,-0.1798785775899887,0.0,3.261566162109375,-0.5227659225463868,0.0,18.0,0.0,3.334879875183105,-0.45124034881591796,0.0,16.0,0.0,2.9289722442626958,0.7167722702026367,0.0,15.75,0.0,3.3055543899536133,2.008881759643555,0.0,13.25,0.0,3.34775447845459,2.1208192825317385,0.0,18.25,,,,,,,,,,,,,,,,,,,,,,,,,,,,,,,,,,,,,,,,
0.0,-2.1151727591650624e-10,2.735982179641724,0.7748648047447204,1.5326744318144847e-09,0.0133458813652396,-0.2127061337232589,8.83244588578691e-10,-0.0266185030341148,-0.1826983839273452,0.0,2.7369260787963867,0.6323720932006835,0.1917510479688644,14.5,0.0,2.781987190246582,0.7772113800048828,0.1917510479688644,13.5,0.0,3.254055976867676,-0.5781982421875,0.0,18.75,0.0,3.333091735839844,-0.46983699798583983,0.0,16.75,0.0,2.6503801345825195,0.7664825439453125,0.0,21.0,0.0,2.739787101745605,0.6938840866088867,0.0,24.75,0.0,2.778768539428711,0.8054639816284179,0.0,24.5,0.0,2.924323081970215,0.7307197570800781,0.0,17.0,0.0,3.299117088317871,1.9731189727783203,0.0,13.0,0.0,3.343820571899414,2.120461654663086,0.0,17.75,,,,,,,,,,,,,,,
0.0,-2.055217246388352e-10,2.737589120864868,0.7718762874603271,1.539291916152763e-09,0.0197664536535739,-0.2177046686410904,8.872598211695503e-10,-0.0171913616359233,-0.1865328252315521,0.0,2.7616024017333984,0.6638433456420898,0.1917510479688644,17.25,0.0,2.7923583984375,0.6849433898925781,0.1917510479688644,16.75,0.0,3.1714439392089844,-0.7423494338989258,0.0,16.25,0.0,3.263711929321289,-0.7140968322753907,0.0,13.75,0.0,2.65359878540039,0.784721565246582,0.0,22.25,0.0,2.7219057083129883,0.7586147308349609,0.0,26.75,0.0,2.77090072631836,0.7968809127807617,0.0,25.5,0.0,2.8971433639526367,0.8276369094848632,0.0,17.75,,,,,,,,,,,,,,,,,,,,,,,,,
0.0,-1.9977504372992167e-10,2.7382285594940186,0.7706213116645813,1.545523597989984e-09,0.0251688733696937,-0.2198392450809478,8.910072124557188e-10,-0.0081627555191516,-0.1879958510398864,0.0,2.727270126342773,0.7385875701904296,0.1917510479688644,17.25,0.0,2.7605295181274414,0.7235671997070312,0.1917510479688644,15.0,0.0,3.19826602935791,-0.6708238601684571,0.0,17.25,0.0,3.26693058013916,-0.7473562240600586,0.0,13.75,0.0,2.6639699935913086,0.752535057067871,0.0,22.0,0.0,2.739429473876953,0.7135536193847656,0.0,26.5,0.0,2.7816295623779297,0.7815029144287109,0.0,25.75,0.0,2.919316291809082,0.718202781677246,0.0,18.5,0.0,3.287315368652344,2.042141151428223,0.0,13.25,,,,,,,,,,,,,,,,,,,,
0.0,-1.9441068199732567e-10,2.739867210388184,0.7683175325393676,1.5515325690884652e-09,0.0309585705399513,-0.2238481193780899,8.946878238269561e-10,9.856559336185457e-05,-0.1911597549915313,0.0,2.774834632873535,0.6881620407104492,0.1917510479688644,17.75,0.0,2.800226211547852,0.6938840866088867,0.1917510479688644,17.75,0.0,3.2025575637817383,-0.6697509765625,0.0,16.0,0.0,2.663254737854004,0.7528926849365234,0.0,21.75,0.0,2.732992172241211,0.7060434341430664,0.0,26.5,0.0,2.781987190246582,0.7407333374023437,0.0,25.25,0.0,2.890348434448242,0.7779266357421875,0.0,17.5,,,,,,,,,,,,,,,,,,,,,,,,,,,,,,
0.0,-1.8930917944359746e-10,2.740661859512329,0.7710481405258178,1.5573224931841876e-09,0.0349140726029872,-0.2198873162269592,8.98244478797494e-10,0.0065314508974552,-0.188021034002304,0.0,2.749800682067871,0.8251335144042968,0.1917510479688644,14.75,0.0,2.7741193771362305,0.9352828979492187,0.1917510479688644,15.75,0.0,3.1049251556396484,2.498116683959961,0.1917510479688644,12.75,0.0,3.402113914489746,-0.4129741668701172,0.0,12.25,0.0,2.6782751083374023,0.7325078964233398,0.0,21.75,0.0,2.745509147644043,0.6917383193969726,0.0,27.25,0.0,2.7834177017211914,0.716057014465332,0.0,26.0,0.0,3.383874893188477,1.8683340072631835,0.0,14.75,0.0,3.303050994873047,2.179470252990723,0.0,19.75,0.0,3.413915634155273,2.338257026672364,0.0,16.75,,,,,,,,,,,,,,,
0.0,-1.844223107561049e-10,2.740179538726806,0.779988420009613,1.5629024741059536e-09,0.0366059280931949,-0.2059631496667862,9.016656310478766e-10,0.0110430615022778,-0.176883116364479,0.0,2.755165100097656,1.0636713027954101,0.1917510479688644,16.0,0.0,2.6350021362304688,1.1949207305908205,0.1917510479688644,14.5,0.0,3.21650505065918,-0.645789909362793,0.0,15.25,0.0,3.4192800521850586,-0.3739927291870117,0.0,13.0,0.0,3.386378288269043,1.8608238220214843,0.0,15.0,0.0,3.288745880126953,2.2080804824829103,0.0,20.0,,,,,,,,,,,,,,,,,,,,,,,,,,,,,,,,,,,
0.0,-1.844223107561049e-10,2.740179538726806,0.779988420009613,1.5629024741059536e-09,0.0366059280931949,-0.2059631496667862,9.016656310478766e-10,0.0110430615022778,-0.176883116364479,0.0,3.2025575637817383,-0.6940696716308594,0.0,15.25,0.0,3.4443140029907227,-0.3035400390625,0.0,12.75,0.0,2.877473831176758,0.8583929061889648,0.0,17.5,0.0,3.3892393112182617,1.859393310546875,0.0,14.0,0.0,3.27444076538086,2.247419548034668,0.0,19.5,0.0,3.3867359161376958,2.3808147430419924,0.0,17.25,,,,,,,,,,,,,,,,,,,,,,,,,,,,,,,,,,,
0.0,-1.844223107561049e-10,2.740179538726806,0.779988420009613,1.5629024741059536e-09,0.0366059280931949,-0.2059631496667862,9.016656310478766e-10,0.0110430615022778,-0.176883116364479,0.0,3.425717353820801,1.7424489974975585,0.0,13.0,0.0,3.2383203506469727,2.3246671676635744,0.0,19.5,0.0,3.378152847290039,2.394404602050781,0.0,17.25,,,,,,,,,,,,,,,,,,,,,,,,,,,,,,,,,,,,,,,,,,,,,,,,,,
0.0,-1.844223107561049e-10,2.740179538726806,0.779988420009613,1.5629024741059536e-09,0.0366059280931949,-0.2059631496667862,9.016656310478766e-10,0.0110430615022778,-0.176883116364479,0.0,3.3119916915893555,2.017464828491211,0.0,13.75,0.0,3.258705139160156,2.287831497192383,0.0,20.0,0.0,3.36599349975586,2.412643623352051,0.0,17.75,,,,,,,,,,,,,,,,,,,,,,,,,,,,,,,,,,,,,,,,,,,,,,,,,,
0.0,-1.844223107561049e-10,2.740179538726806,0.779988420009613,1.5629024741059536e-09,0.0366059280931949,-0.2059631496667862,9.016656310478766e-10,0.0110430615022778,-0.176883116364479,0.0,3.278017044067383,-0.4966590881347656,0.0,18.25,0.0,3.3867359161376958,-0.3557537078857422,0.0,14.75,0.0,3.19826602935791,2.2030736923217775,0.0,12.75,0.0,3.2694339752197266,2.283539962768555,0.0,19.5,0.0,3.4232139587402344,2.323236656188965,0.0,17.75,,,,,,,,,,,,,,,,,,,,,,,,,,,,,,,,,,,,,,,,
0.0,-1.844223107561049e-10,2.740179538726806,0.779988420009613,1.5629024741059536e-09,0.0366059280931949,-0.2059631496667862,9.016656310478766e-10,0.0110430615022778,-0.176883116364479,0.0,3.290891647338867,-0.4301403045654297,0.0,19.25,0.0,2.697229385375977,0.6971027374267578,0.0,15.75,0.0,3.2501220703125,2.097573471069336,0.0,12.75,0.0,3.2726526260375977,2.2642280578613283,0.0,18.5,0.0,3.4242868423461914,2.3214485168457033,0.0,16.75,,,,,,,,,,,,,,,,,,,,,,,,,,,,,,,,,,,,,,,,
0.0,-1.844223107561049e-10,2.740179538726806,0.779988420009613,1.5629024741059536e-09,0.0366059280931949,-0.2059631496667862,9.016656310478766e-10,0.0110430615022778,-0.176883116364479,0.0,3.2815933227539062,-0.4426572799682617,0.0,19.0,0.0,3.3828020095825195,-0.3410909652709961,0.0,15.0,0.0,2.7076005935668945,0.6048347473144531,0.0,14.25,0.0,2.770543098449707,0.7253553390502929,0.0,20.75,0.0,2.7773380279541016,0.9474422454833984,0.0,22.0,0.0,2.864956855773926,1.0139610290527343,0.0,16.25,0.0,3.3445358276367188,1.868691635131836,0.0,12.5,0.0,3.294825553894043,2.2270347595214846,0.0,18.25,0.0,3.438591957092285,2.298202705383301,0.0,16.25,,,,,,,,,,,,,,,,,,,,
0.0,-1.844223107561049e-10,2.740179538726806,0.779988420009613,1.5629024741059536e-09,0.0366059280931949,-0.2059631496667862,9.016656310478766e-10,0.0110430615022778,-0.176883116364479,0.0,3.270506858825684,-0.4998777389526367,0.0,19.25,0.0,3.3173561096191406,-0.5184743881225586,0.0,15.5,0.0,2.696871757507324,0.6892349243164062,0.0,15.25,0.0,3.3881664276123047,1.709904861450195,0.0,13.25,0.0,3.349900245666504,2.1143819808959963,0.0,18.25,0.0,3.470420837402344,2.245273780822754,0.0,16.0,,,,,,,,,,,,,,,,,,,,,,,,,,,,,,,,,,,
0.0,-1.844223107561049e-10,2.740179538726806,0.779988420009613,1.5629024741059536e-09,0.0366059280931949,-0.2059631496667862,9.016656310478766e-10,0.0110430615022778,-0.176883116364479,0.0,3.2701492309570312,-0.498089599609375,0.0,19.0,0.0,3.324151039123535,-0.5098913192749024,0.0,15.5,0.0,2.697229385375977,0.6849433898925781,0.0,17.5,0.0,3.357052803039551,1.816835594177246,0.0,12.5,,,,,,,,,,,,,,,,,,,,,,,,,,,,,,,,,,,,,,,,,,,,,
0.0,-1.844223107561049e-10,2.740179538726806,0.779988420009613,1.5629024741059536e-09,0.0366059280931949,-0.2059631496667862,9.016656310478766e-10,0.0110430615022778,-0.176883116364479,0.0,3.306269645690918,-0.5699728012084961,0.0,15.25,0.0,3.2758712768554688,-0.5231235504150391,0.0,18.0,0.0,2.6961565017700195,0.6899501800537109,0.0,17.25,0.0,2.741217613220215,0.7396604537963867,0.0,23.25,0.0,3.3359527587890625,2.169814300537109,0.0,18.5,,,,,,,,,,,,,,,,,,,,,,,,,,,,,,,,,,,,,,,,
0.0,-1.7973766919254786e-10,2.740739107131958,0.7789490938186645,1.5680337028811662e-09,0.0411173477768898,-0.2076373994350433,9.047826932118139e-10,0.0185535233467817,-0.1779453307390213,0.0,2.7244091033935547,0.7586147308349609,0.1917510479688644,15.25,0.0,2.774834632873535,0.7239248275756835,0.1917510479688644,13.5,0.0,3.255486488342285,-0.5724761962890625,0.0,17.5,0.0,3.294825553894043,-0.6515119552612305,0.0,14.5,,,,,,,,,,,,,,,,,,,,,,,,,,,,,,,,,,,,,,,,,,,,,
0.0,-1.7973766919254786e-10,2.740739107131958,0.7789490938186645,1.5680337028811662e-09,0.0411173477768898,-0.2076373994350433,9.047826932118139e-10,0.0185535233467817,-0.1779453307390213,0.0,3.3048391342163086,-0.6136034011840821,0.0,15.5,0.0,3.255128860473633,-0.5392168045043946,0.0,17.5,,,,,,,,,,,,,,,,,,,,,,,,,,,,,,,,,,,,,,,,,,,,,,,,,,,,,,,
0.0,-1.7793297391044402e-10,2.7403719425201416,0.7782288908958435,1.5700285516118127e-09,0.0393033698201179,-0.2086938619613647,9.058211958290483e-10,0.0156447701156139,-0.1788399666547775,0.0,2.7158260345458984,0.7153417587280273,-0.1917510479688644,13.75,0.0,3.2379627227783203,-0.5295608520507813,0.0,17.5,0.0,3.311276435852051,-0.5120370864868165,0.0,13.75,0.0,2.938985824584961,0.5257989883422851,0.0,17.0,0.0,3.336310386657715,2.188768577575684,0.0,18.5,0.0,3.436446189880371,2.3017789840698244,0.0,17.75,,,,,,,,,,,,,,,,,,,,,,,,,,,,,,,,,,,
0.0,-1.7451357026132539e-10,2.740885734558105,0.7746002197265625,1.573979391267244e-09,0.0367080755531787,-0.2144792675971985,9.079386686927647e-10,0.0098211467266082,-0.1837339103221893,0.0,2.761244773864746,0.6159212112426757,-0.1917510479688644,15.75,0.0,2.775907516479492,0.6352331161499023,-0.1917510479688644,14.75,,,,,,,,,,,,,,,,,,,,,,,,,,,,,,,,,,,,,,,,,,,,,,,,,,,,,,,
0.0,-1.7122450679529774e-10,2.7414517402648926,0.7709437727928161,1.5777817941042827e-09,0.0342592597007751,-0.2202731370925903,9.099750952756835e-10,0.0041964086703956,-0.1885989606380462,0.0,2.764105796813965,0.6127025604248046,-0.1917510479688644,17.0,0.0,2.7784109115600586,0.6230737686157226,-0.1917510479688644,15.5,,,,,,,,,,,,,,,,,,,,,,,,,,,,,,,,,,,,,,,,,,,,,,,,,,,,,,,
0.0,-1.663726517664443e-10,2.7402021884918213,0.7691944360733032,1.5830711186382016e-09,0.0291720665991306,-0.22262042760849,9.126908673273703e-10,-0.0036222203634679,-0.1904542744159698,0.0,2.659320831298828,0.7071163177490234,-0.1917510479688644,12.5,0.0,2.70688533782959,0.7282163619995117,-0.1917510479688644,16.75,0.0,2.755880355834961,0.7074739456176757,-0.1917510479688644,13.75,,,,,,,,,,,,,,,,,,,,,,,,,,,,,,,,,,,,,,,,,,,,,,,,,,
0.0,-1.631713236749377e-10,2.7374978065490723,0.7735737085342407,1.5863771407609304e-09,0.0239762961864471,-0.2151393890380859,9.143137358336161e-10,-0.0091222468763589,-0.1842530816793441,0.0,2.605319023132324,0.9134675979614257,-0.1917510479688644,12.25,0.0,2.62141227722168,0.9681846618652343,-0.1917510479688644,16.5,0.0,2.6907920837402344,0.7718469619750976,0.0,20.75,0.0,2.7354955673217773,0.7543231964111328,0.0,27.0,,,,,,,,,,,,,,,,,,,,,,,,,,,,,,,,,,,,,,,,,,,,,
0.0,-1.603062405042266e-10,2.738045454025269,0.77302987575531,1.5898085070631394e-09,0.0211317855864763,-0.2161007225513458,9.161790215372887e-10,-0.0152128040790557,-0.185346707701683,0.0,2.804160118103028,0.6663467407226562,-0.1917510479688644,15.25,0.0,2.750873565673828,0.8276369094848632,-0.1917510479688644,15.25,0.0,2.9969215393066406,0.3702308654785156,0.0,15.25,0.0,2.6804208755493164,0.8093978881835937,0.0,20.5,0.0,2.732992172241211,0.7793571472167968,0.0,26.75,0.0,2.76947021484375,0.7110502243041992,0.0,25.0,,,,,,,,,,,,,,,,,,,,,,,,,,,,,,,,,,,
0.0,-1.5749680726262483e-10,2.737434864044189,0.7776560306549072,1.5931493901888414e-09,0.0167024862021207,-0.208769753575325,9.179762505695519e-10,-0.0222145933657884,-0.1797571629285812,0.0,2.7723312377929688,0.875201416015625,-0.1917510479688644,14.5,0.0,2.666831016540528,1.0819103240966796,-0.1917510479688644,14.75,0.0,2.672553062438965,0.7986690521240234,0.0,19.0,0.0,2.735137939453125,0.7507469177246093,0.0,24.5,0.0,2.777695655822754,0.7064010620117187,0.0,23.25,,,,,,,,,,,,,,,,,,,,,,,,,,,,,,,,,,,,,,,,
0.0,-1.5477508163996842e-10,2.737346887588501,0.777629804611206,1.5962777766276302e-09,0.0137759698554873,-0.2088274508714676,9.196327588334439e-10,-0.0275270082056522,-0.1800287365913391,0.0,2.76947021484375,0.7224943161010742,-0.1917510479688644,15.75,0.0,2.7208328247070312,0.820126724243164,-0.1917510479688644,17.5,0.0,3.0759572982788086,0.02082843780517582,0.0,16.25,0.0,2.7333498001098637,0.7772113800048828,0.0,24.75,0.0,2.778768539428711,0.7081892013549804,0.0,23.5,0.0,2.663612365722656,0.8465911865234375,0.0,19.25,,,,,,,,,,,,,,,,,,,,,,,,,,,,,,,,,,,
0.0,-1.5071617565087791e-10,2.734833002090454,0.7827208757400512,1.6006259651035746e-09,0.0075576240196824,-0.2004063874483108,9.218197871696531e-10,-0.0351439826190471,-0.1733079254627227,0.0,2.612471580505371,0.9359981536865234,-0.1917510479688644,12.75,0.0,2.6568174362182617,0.9395744323730468,-0.1917510479688644,17.5,0.0,2.700448036193848,0.9059574127197265,-0.1917510479688644,14.0,0.0,3.077387809753418,-0.03424625396728509,0.0,16.25,0.0,2.727627754211426,0.786867332458496,0.0,25.0,0.0,2.7805566787719727,0.6820823669433593,0.0,23.75,0.0,2.6639699935913086,0.8358623504638671,0.0,19.75,0.0,3.414630889892578,2.336826515197754,0.0,12.75,0.0,3.2494068145751958,2.2996332168579103,0.0,14.75,,,,,,,,,,,,,,,,,,,,
0.0,-1.4940998438461858e-10,2.733863353729248,0.785902988910675,1.6020574866715263e-09,0.0051407413557171,-0.1952937841415405,9.225493702302855e-10,-0.0380226001143455,-0.1692727506160736,0.0,2.6324987411499023,1.0783340454101562,-0.1917510479688644,12.25,0.0,2.789139747619629,0.682797622680664,0.0,23.25,0.0,2.650737762451172,0.9120370864868164,0.0,18.25,0.0,2.725839614868164,0.8258487701416015,0.0,24.5,0.0,3.2722949981689453,2.239909362792969,0.0,14.5,0.0,3.497958183288574,2.1980669021606443,0.0,12.5,,,,,,,,,,,,,,,,,,,,,,,,,,,,,,,,,,,
0.0,-1.4695565597744317e-10,2.733656644821167,0.7876569747924804,1.604918420383683e-09,0.0020293905399739,-0.1926513910293579,9.240718190639539e-10,-0.0433777533471584,-0.1674791276454925,0.0,2.727627754211426,0.8755590438842773,-0.1917510479688644,19.75,0.0,2.743721008300781,0.8651878356933593,-0.1917510479688644,18.75,0.0,2.6764869689941406,0.7925893783569335,0.0,19.25,0.0,2.7573108673095703,0.8047487258911132,0.0,22.5,0.0,2.7054548263549805,0.8330013275146484,0.0,25.25,0.0,3.210067749023437,2.2999908447265627,0.0,13.75,,,,,,,,,,,,,,,,,,,,,,,,,,,,,,,,,,,
0.0,-1.4463799602459915e-10,2.734315872192383,0.7882726311683654,1.6077651432411242e-09,-0.0004755137488245,-0.191988319158554,9.256336253038455e-10,-0.0489131361246109,-0.1674175262451172,0.0,2.788782119750977,0.8000995635986328,-0.1917510479688644,17.75,0.0,2.780914306640625,0.8380081176757812,-0.1917510479688644,18.75,0.0,2.8052330017089844,0.6563331604003906,0.0,23.25,0.0,2.7222633361816406,0.8283521652221679,0.0,24.5,0.0,3.322720527648926,2.1243955612182615,0.0,14.25,,,,,,,,,,,,,,,,,,,,,,,,,,,,,,,,,,,,,,,,
0.0,-1.4463799602459915e-10,2.734315872192383,0.7882726311683654,1.6077651432411242e-09,-0.0004755137488245,-0.191988319158554,9.256336253038455e-10,-0.0489131361246109,-0.1674175262451172,0.0,3.247976303100586,2.249565315246582,0.0,16.0,0.0,3.5201311111450195,2.158727836608887,0.0,12.25,0.0,2.967953681945801,2.458419990539551,0.0,13.0,,,,,,,,,,,,,,,,,,,,,,,,,,,,,,,,,,,,,,,,,,,,,,,,,,
0.0,-1.4463799602459915e-10,2.734315872192383,0.7882726311683654,1.6077651432411242e-09,-0.0004755137488245,-0.191988319158554,9.256336253038455e-10,-0.0489131361246109,-0.1674175262451172,0.0,2.962589263916016,0.5701448440551757,0.0,17.0,0.0,3.3055543899536133,2.179470252990723,0.0,17.75,0.0,3.498673439025879,2.1966363906860353,0.0,14.0,,,,,,,,,,,,,,,,,,,,,,,,,,,,,,,,,,,,,,,,,,,,,,,,,,
0.0,-1.4463799602459915e-10,2.734315872192383,0.7882726311683654,1.6077651432411242e-09,-0.0004755137488245,-0.191988319158554,9.256336253038455e-10,-0.0489131361246109,-0.1674175262451172,0.0,3.282308578491211,2.2138025283813483,0.0,18.0,0.0,3.4650564193725586,2.254572105407715,0.0,14.5,0.0,3.1156539916992188,2.267804336547852,0.0,13.5,,,,,,,,,,,,,,,,,,,,,,,,,,,,,,,,,,,,,,,,,,,,,,,,,,
0.0,-1.4315477969706336e-10,2.7347757816314697,0.7870056748390197,1.609430699822667e-09,0.0018417311366647,-0.1939514726400375,9.267002165636027e-10,-0.0453504174947738,-0.1688127070665359,0.0,2.765536308288574,0.6631280899047851,0.1917510479688644,12.25,0.0,3.2629966735839844,-0.45624713897705077,0.0,21.5,0.0,3.3273696899414062,-0.41440467834472655,0.0,17.75,0.0,2.716541290283203,0.7464553833007812,0.0,17.0,0.0,3.4461021423339844,2.285685729980469,0.0,14.0,0.0,3.2393932342529297,2.2860433578491213,0.0,17.75,0.0,2.8874874114990234,2.591815185546875,0.0,13.0,,,,,,,,,,,,,,,,,,,,,,,,,,,,,,
0.0,-1.4027014272333102e-10,2.7353172302246094,0.7875590443611145,1.6127367219453959e-09,0.0055074146948754,-0.1930261552333831,9.288303459698e-10,-0.0392527990043163,-0.1677913516759872,0.0,2.740144729614258,0.8133317947387695,0.1917510479688644,15.5,0.0,2.7691125869750977,0.8233453750610351,0.1917510479688644,15.25,0.0,3.245830535888672,-0.46590309143066405,0.0,22.5,0.0,3.303408622741699,-0.45517425537109374,0.0,18.25,0.0,3.00443172454834,0.3512765884399414,0.0,19.0,,,,,,,,,,,,,,,,,,,,,,,,,,,,,,,,,,,,,,,,
0.0,-1.375639047118682e-10,2.737213373184204,0.7842962265014648,1.615983791225517e-09,0.0103937517851591,-0.1983323991298675,9.309710224947311e-10,-0.0330895781517028,-0.171904444694519,0.0,2.8231143951416016,0.6091262817382812,0.1917510479688644,14.0,0.0,2.8270483016967773,0.6320144653320312,0.1917510479688644,15.25,0.0,2.721548080444336,0.7342960357666015,0.0,18.25,0.0,3.403902053833008,2.354350280761719,0.0,14.25,,,,,,,,,,,,,,,,,,,,,,,,,,,,,,,,,,,,,,,,,,,,,
0.0,-1.3617235117280302e-10,2.7369935512542725,0.7839093923568725,1.617443512458294e-09,0.012173306196928,-0.1988156288862228,9.318814608860746e-10,-0.0295041315257549,-0.172045037150383,0.0,3.2848119735717773,-0.5392168045043946,0.1917510479688644,17.25,0.0,3.307700157165528,-0.4515979766845703,0.1917510479688644,16.25,0.0,2.6929378509521484,0.7443096160888671,0.1917510479688644,12.25,0.0,3.274083137512207,-0.517759132385254,0.0,23.5,0.0,3.287672996520996,-0.4802082061767578,0.0,19.75,0.0,2.724766731262207,0.6745721817016601,0.0,17.0,,,,,,,,,,,,,,,,,,,,,,,,,,,,,,,,,,,
0.0,-1.3221200523272358e-10,2.737799406051636,0.778720211982727,1.6217347464930752e-09,0.018866391852498,-0.2068627476692199,9.346127205489552e-10,-0.0186069682240486,-0.1779142618179321,0.0,3.276228904724121,-0.4587505340576172,0.1917510479688644,13.75,0.0,3.347396850585937,-0.4508827209472656,0.1917510479688644,14.25,0.0,2.734065055847168,0.6259347915649414,0.1917510479688644,18.25,0.0,2.8073787689208984,0.5143548965454101,0.1917510479688644,15.75,0.0,2.674698829650879,0.6756450653076171,0.1917510479688644,13.75,0.0,3.2712221145629883,-0.5091760635375977,0.0,23.0,0.0,3.290534019470215,-0.4726980209350586,0.0,19.25,0.0,3.159642219543457,2.4079944610595705,0.0,17.75,0.0,3.338098526000977,2.4552013397216803,0.0,14.5,,,,,,,,,,,,,,,,,,,,
0.0,-1.2979756158770783e-10,2.7402150630950928,0.7711276531219482,1.6245915723800406e-09,0.0247139409184455,-0.2191550433635711,9.36505428761336e-10,-0.0117360521107912,-0.187690794467926,0.0,2.812027931213379,0.3276731491088867,0.1917510479688644,14.5,0.0,2.846717834472656,0.40420551300048824,0.1917510479688644,15.0,0.0,3.27301025390625,-0.5195472717285157,0.0,23.25,0.0,3.2787322998046875,-0.5066726684570313,0.0,19.5,0.0,2.6950836181640625,0.7900859832763671,0.0,20.25,0.0,3.0956268310546875,2.475228500366211,0.0,16.5,0.0,3.257274627685547,2.5703575134277346,0.0,13.0,,,,,,,,,,,,,,,,,,,,,,,,,,,,,,
0.0,-1.2640910540540062e-10,2.744619131088257,0.7612360835075378,1.628878476545026e-09,0.0331317409873008,-0.2356242090463638,9.394134359297368e-10,-0.0030758110806345,-0.2011640071868896,0.0,2.9772520065307617,0.2457763671875,0.1917510479688644,12.25,0.0,2.862811088562012,0.4421140670776367,0.1917510479688644,18.0,0.0,2.818822860717773,0.4739429473876953,0.1917510479688644,17.25,0.0,3.2651424407958984,-0.5252693176269532,0.0,23.0,0.0,3.277301788330078,-0.5195472717285157,0.0,19.25,0.0,2.68399715423584,0.8036758422851562,0.0,21.0,0.0,3.1009912490844727,2.46736068725586,0.0,16.0,0.0,3.2984018325805664,2.512779426574707,0.0,12.25,,,,,,,,,,,,,,,,,,,,,,,,,
0.0,-1.2416574712847958e-10,2.7459487915039062,0.7579800009727478,1.6315148121393006e-09,0.0373635552823543,-0.2411983609199524,9.411531554093242e-10,0.0026442683301866,-0.2057257890701294,0.0,2.793431282043457,0.5908872604370117,0.1917510479688644,18.75,0.0,2.819180488586426,0.5747940063476562,0.1917510479688644,18.75,0.0,3.072738647460937,2.542820167541504,0.1917510479688644,12.25,0.0,3.254413604736328,-0.5163286209106446,0.0,22.75,0.0,3.2726526260375977,-0.5181167602539063,0.0,19.0,0.0,2.692580223083496,0.7893707275390625,0.0,22.0,0.0,2.786993980407715,0.6867315292358398,0.0,28.25,0.0,3.1682252883911133,2.3843910217285162,0.0,15.5,,,,,,,,,,,,,,,,,,,,,,,,,
0.0,-1.2416574712847958e-10,2.7459487915039062,0.7579800009727478,1.6315148121393006e-09,0.0373635552823543,-0.2411983609199524,9.411531554093242e-10,0.0026442683301866,-0.2057257890701294,0.0,3.2515525817871094,-0.4948709487915039,0.0,20.0,0.0,3.314852714538574,-0.38829784393310546,0.0,16.25,0.0,3.005862236022949,0.35270709991455074,0.0,16.5,0.0,2.681136131286621,0.7789995193481445,0.0,19.75,0.0,2.753734588623047,0.7074739456176757,0.0,26.0,0.0,2.7923583984375,0.669207763671875,0.0,25.0,,,,,,,,,,,,,,,,,,,,,,,,,,,,,,,,,,,
0.0,-1.2416574712847958e-10,2.7459487915039062,0.7579800009727478,1.6315148121393006e-09,0.0373635552823543,-0.2411983609199524,9.411531554093242e-10,0.0026442683301866,-0.2057257890701294,0.0,3.237247467041016,-0.5642507553100586,0.0,20.25,0.0,3.266572952270508,-0.5882118225097657,0.0,16.25,0.0,2.8073787689208984,0.6137754440307617,0.0,25.75,0.0,2.7011632919311523,0.714984130859375,0.0,19.5,0.0,2.771615982055664,0.6506111145019531,0.0,26.75,0.0,3.288745880126953,2.5263692855834963,0.0,12.25,,,,,,,,,,,,,,,,,,,,,,,,,,,,,,,,,,,
0.0,-1.2416574712847958e-10,2.7459487915039062,0.7579800009727478,1.6315148121393006e-09,0.0373635552823543,-0.2411983609199524,9.411531554093242e-10,0.0026442683301866,-0.2057257890701294,0.0,3.2411813735961914,-0.5442235946655274,0.0,19.5,0.0,3.2733678817749023,-0.5653236389160157,0.0,15.5,0.0,2.964019775390625,0.4435445785522461,0.0,18.0,,,,,,,,,,,,,,,,,,,,,,,,,,,,,,,,,,,,,,,,,,,,,,,,,,
0.0,-1.22331214602589e-10,2.743625402450561,0.7602931976318359,1.6331677121783626e-09,0.0335864014923572,-0.2368459105491638,9.418174018449575e-10,-0.0009091589599847,-0.2018381655216217,0.0,2.5920867919921875,0.8630420684814453,-0.1917510479688644,13.75,0.0,2.6128292083740234,0.8809234619140625,-0.1917510479688644,15.25,0.0,3.2050609588623047,-0.4712675094604492,0.0,15.25,0.0,2.951502799987793,0.4045631408691406,0.0,17.75,,,,,,,,,,,,,,,,,,,,,,,,,,,,,,,,,,,,,,,,,,,,,
0.0,-1.22331214602589e-10,2.743625402450561,0.7602931976318359,1.6331677121783626e-09,0.0335864014923572,-0.2368459105491638,9.418174018449575e-10,-0.0009091589599847,-0.2018381655216217,0.0,3.212928771972656,-0.4816387176513672,0.0,15.75,0.0,3.3316612243652344,-0.5088184356689454,0.0,13.0,0.0,2.956867218017578,0.3777410507202148,0.0,17.75,0.0,2.7762651443481445,0.5933906555175781,0.0,26.0,0.0,2.820611000061035,0.5325939178466796,0.0,25.5,0.0,2.6847124099731445,0.761833381652832,0.0,20.0,,,,,,,,,,,,,,,,,,,,,,,,,,,,,,,,,,,
0.0,-1.22331214602589e-10,2.743625402450561,0.7602931976318359,1.6331677121783626e-09,0.0335864014923572,-0.2368459105491638,9.418174018449575e-10,-0.0009091589599847,-0.2018381655216217,0.0,3.251194953918457,-0.39401988983154296,0.0,18.0,0.0,3.333449363708496,-0.4247758865356445,0.0,15.25,0.0,2.991914749145508,0.30442733764648433,0.0,18.0,0.0,2.7011632919311523,0.681724739074707,0.0,19.5,,,,,,,,,,,,,,,,,,,,,,,,,,,,,,,,,,,,,,,,,,,,,
0.0,-1.2071235677701964e-10,2.74370551109314,0.7622453689575195,1.635115931541975e-09,0.0305220074951648,-0.2336475402116775,9.428120506527191e-10,-0.006545852869749,-0.1994221359491348,0.0,2.79092788696289,0.8269216537475585,-0.1917510479688644,13.0,0.0,2.7333498001098637,0.9166862487792968,-0.1917510479688644,12.5,0.0,3.235459327697754,-0.46018104553222655,0.0,18.75,0.0,3.303766250610352,-0.5274150848388672,0.0,15.0,,,,,,,,,,,,,,,,,,,,,,,,,,,,,,,,,,,,,,,,,,,,,
0.0,-1.190017251406772e-10,2.741999864578247,0.7636094808578491,1.6367185384780212e-09,0.027307242155075,-0.230977788567543,9.434832914934075e-10,-0.0100012309849262,-0.1970196813344955,0.0,2.629637718200684,0.8140470504760742,-0.1917510479688644,13.5,0.0,2.6443004608154297,0.8433725357055664,-0.1917510479688644,17.0,0.0,3.2454729080200195,-0.5120370864868165,0.0,18.5,0.0,3.30805778503418,-0.5317066192626954,0.0,14.75,0.0,3.015875816345215,0.26437301635742183,0.0,16.25,0.0,2.795577049255371,0.6423856735229492,0.0,24.25,0.0,2.684354782104492,0.7625486373901367,0.0,19.0,0.0,2.7573108673095703,0.6620552062988281,0.0,25.5,,,,,,,,,,,,,,,,,,,,,,,,,
0.0,-1.1750111994501822e-10,2.7433536052703857,0.7589564442634582,1.6385031109678039e-09,0.0264062471687793,-0.2383686155080795,9.44391898016761e-10,-0.0139293130487203,-0.2031114846467971,0.0,2.799868583679199,0.4825260162353515,-0.1917510479688644,12.25,0.0,2.8384923934936523,0.4868175506591797,-0.1917510479688644,12.0,0.0,2.687215805053711,0.7568265914916992,0.0,19.75,0.0,2.754807472229004,0.6770755767822265,0.0,26.0,,,,,,,,,,,,,,,,,,,,,,,,,,,,,,,,,,,,,,,,,,,,,
0.0,-1.159926044103088e-10,2.743624687194824,0.7581117272377014,1.640225955057417e-09,0.0243191681802272,-0.2395515888929367,9.452417737421115e-10,-0.0182383973151445,-0.2041102051734924,0.0,2.7576684951782227,0.6860162734985351,-0.1917510479688644,14.0,0.0,2.780914306640625,0.727501106262207,-0.1917510479688644,13.0,0.0,2.690434455871582,0.752535057067871,0.0,19.0,0.0,2.7691125869750977,0.6459619522094726,0.0,25.75,0.0,2.7937889099121094,0.6516839981079101,0.0,25.0,,,,,,,,,,,,,,,,,,,,,,,,,,,,,,,,,,,,,,,,
0.0,-1.1499979440943163e-10,2.743793249130249,0.7564101338386535,1.641293656540199e-09,0.026279654353857,-0.2423538714647293,9.459366623332244e-10,-0.0149764493107795,-0.2063060849905014,0.0,2.737998962402344,0.5572702407836914,0.1917510479688644,13.5,0.0,3.06093692779541,0.08842010498046882,0.0,16.75,0.0,2.764463424682617,0.6209280014038085,0.0,24.0,0.0,2.819180488586426,0.5601312637329101,0.0,23.5,0.0,2.657175064086914,0.8158351898193359,0.0,19.0,,,,,,,,,,,,,,,,,,,,,,,,,,,,,,,,,,,,,,,,
0.0,-1.1499979440943163e-10,2.743793249130249,0.7564101338386535,1.641293656540199e-09,0.026279654353857,-0.2423538714647293,9.459366623332244e-10,-0.0149764493107795,-0.2063060849905014,0.0,2.834558486938477,0.5165006637573242,0.0,24.0,,,,,,,,,,,,,,,,,,,,,,,,,,,,,,,,,,,,,,,,,,,,,,,,,,,,,,,,,,,,
0.0,-1.1499979440943163e-10,2.743793249130249,0.7564101338386535,1.641293656540199e-09,0.026279654353857,-0.2423538714647293,9.459366623332244e-10,-0.0149764493107795,-0.2063060849905014,0.0,2.981185913085937,0.3333951950073242,0.0,18.5,0.0,2.7723312377929688,0.6223585128784179,0.0,27.25,0.0,2.807736396789551,0.5983974456787109,0.0,26.25,0.0,2.707958221435547,0.6506111145019531,0.0,20.75,,,,,,,,,,,,,,,,,,,,,,,,,,,,,,,,,,,,,,,,,,,,,
0.0,-1.1499979440943163e-10,2.743793249130249,0.7564101338386535,1.641293656540199e-09,0.026279654353857,-0.2423538714647293,9.459366623332244e-10,-0.0149764493107795,-0.2063060849905014,0.0,2.7691125869750977,0.6230737686157226,0.0,26.5,0.0,2.812743186950684,0.5930330276489257,0.0,25.5,0.0,2.704024314880371,0.6663467407226562,0.0,20.25,,,,,,,,,,,,,,,,,,,,,,,,,,,,,,,,,,,,,,,,,,,,,,,,,,
0.0,-1.1499979440943163e-10,2.743793249130249,0.7564101338386535,1.641293656540199e-09,0.026279654353857,-0.2423538714647293,9.459366623332244e-10,-0.0149764493107795,-0.2063060849905014,0.0,3.230810165405273,-0.5603168487548829,0.0,19.25,0.0,3.311634063720703,-0.5392168045043946,0.0,15.5,0.0,2.794504165649414,0.635948371887207,0.0,24.5,0.0,2.682924270629883,0.6949569702148437,0.0,21.25,0.0,2.744436264038086,0.6527568817138671,0.0,26.25,0.0,3.183245658874512,2.377953720092773,0.0,12.25,,,,,,,,,,,,,,,,,,,,,,,,,,,,,,,,,,,
0.0,-1.1499979440943163e-10,2.743793249130249,0.7564101338386535,1.641293656540199e-09,0.026279654353857,-0.2423538714647293,9.459366623332244e-10,-0.0149764493107795,-0.2063060849905014,0.0,3.2358169555664062,-0.5456541061401368,0.0,18.5,0.0,3.334879875183105,-0.45839290618896483,0.0,14.75,0.0,2.754449844360352,0.6316568374633789,0.0,26.5,0.0,2.7948617935180664,0.615205955505371,0.0,24.75,,,,,,,,,,,,,,,,,,,,,,,,,,,,,,,,,,,,,,,,,,,,,
0.0,-1.1499979440943163e-10,2.743793249130249,0.7564101338386535,1.641293656540199e-09,0.026279654353857,-0.2423538714647293,9.459366623332244e-10,-0.0149764493107795,-0.2063060849905014,0.0,3.2279491424560547,-0.5610321044921875,0.0,18.5,0.0,3.2941102981567383,-0.5463693618774415,0.0,14.5,0.0,2.7637481689453125,0.625577163696289,0.0,25.5,,,,,,,,,,,,,,,,,,,,,,,,,,,,,,,,,,,,,,,,,,,,,,,,,,
0.0,-1.1499979440943163e-10,2.743793249130249,0.7564101338386535,1.641293656540199e-09,0.026279654353857,-0.2423538714647293,9.459366623332244e-10,-0.0149764493107795,-0.2063060849905014,0.0,3.2329559326171875,-0.4948709487915039,0.0,17.5,0.0,3.31878662109375,-0.4605386734008789,0.0,14.25,,,,,,,,,,,,,,,,,,,,,,,,,,,,,,,,,,,,,,,,,,,,,,,,,,,,,,,
0.0,-1.1499979440943163e-10,2.743793249130249,0.7564101338386535,1.641293656540199e-09,0.026279654353857,-0.2423538714647293,9.459366623332244e-10,-0.0149764493107795,-0.2063060849905014,0.0,3.244757652282715,-0.48879127502441405,0.0,19.5,0.0,3.054141998291016,0.07554550170898441,0.0,16.75,,,,,,,,,,,,,,,,,,,,,,,,,,,,,,,,,,,,,,,,,,,,,,,,,,,,,,,
0.0,-1.1499979440943163e-10,2.743793249130249,0.7564101338386535,1.641293656540199e-09,0.026279654353857,-0.2423538714647293,9.459366623332244e-10,-0.0149764493107795,-0.2063060849905014,0.0,3.287315368652344,-0.5510185241699219,0.0,18.75,0.0,3.2515525817871094,-0.5113218307495118,0.0,21.75,0.0,2.7512311935424805,0.6652738571166992,0.0,25.75,0.0,2.788066864013672,0.6491806030273437,0.0,24.25,0.0,3.21042537689209,2.261009407043457,0.0,13.75,,,,,,,,,,,,,,,,,,,,,,,,,,,,,,,,,,,,,,,,
0.0,-1.1499979440943163e-10,2.743793249130249,0.7564101338386535,1.641293656540199e-09,0.026279654353857,-0.2423538714647293,9.459366623332244e-10,-0.0149764493107795,-0.2063060849905014,0.0,3.2526254653930664,-0.5488727569580079,0.0,23.0,0.0,3.284454345703125,-0.5907152175903321,0.0,19.5,0.0,3.1260251998901367,-0.33036212921142577,0.0,17.5,0.0,2.739787101745605,0.6280805587768554,0.0,24.5,0.0,2.8012990951538086,0.5873109817504882,0.0,22.75,0.0,3.185391426086426,2.0217563629150392,0.0,12.75,0.0,3.2236576080322266,2.190556716918945,0.0,14.5,,,,,,,,,,,,,,,,,,,,,,,,,,,,,,
0.0,-1.1400762278679366e-10,2.743563175201416,0.7563110709190368,1.6423463700121486e-09,0.0277193281799554,-0.2425899356603622,9.4661589677969e-10,-0.0119969453662633,-0.2064367532730102,0.0,2.697587013244629,0.7464553833007812,0.1917510479688644,15.0,0.0,3.2958984375,-0.5728338241577149,0.0,19.25,0.0,3.255486488342285,-0.5320642471313477,0.0,22.0,0.0,3.1017065048217773,-0.18373470306396478,0.0,17.25,0.0,3.1893253326416016,2.033915710449219,0.0,13.0,0.0,3.191471099853516,2.271738243103028,0.0,15.25,,,,,,,,,,,,,,,,,,,,,,,,,,,,,,,,,,,
0.0,-1.1210648381831943e-10,2.743370056152344,0.7590649843215942,1.644565816860677e-09,0.02985062263906,-0.2385434359312057,9.480944918038856e-10,-0.0075714290142059,-0.203268364071846,0.0,2.690434455871582,0.9431507110595703,0.1917510479688644,13.25,0.0,2.7533769607543945,0.912752342224121,0.1917510479688644,12.75,0.0,3.17072868347168,2.1029378890991213,0.0,14.5,0.0,3.14176082611084,2.358641815185547,0.0,17.0,0.0,3.2057762145996094,2.6390220642089846,0.0,13.5,,,,,,,,,,,,,,,,,,,,,,,,,,,,,,,,,,,,,,,,
0.0,-1.1027471991109648e-10,2.743514060974121,0.7602949261665344,1.6467177621493079e-09,0.0323685519397258,-0.2368919104337692,9.49535561289849e-10,-0.0030177836306393,-0.2019973844289779,0.0,2.732992172241211,0.8365776062011718,0.1917510479688644,17.0,0.0,2.7594566345214844,0.8433725357055664,0.1917510479688644,16.0,0.0,3.170371055603028,2.327170562744141,0.0,17.25,0.0,3.2737255096435547,2.547111701965332,0.0,13.5,,,,,,,,,,,,,,,,,,,,,,,,,,,,,,,,,,,,,,,,,,,,,
0.0,-1.0936490602020399e-10,2.7433502674102783,0.7608285665512085,1.647730507592371e-09,0.0335603058338165,-0.2361269146203994,9.502018061269266e-10,-0.0005403456743806,-0.2013482898473739,0.0,2.7104616165161133,0.829425048828125,0.1917510479688644,14.5,0.0,2.6646852493286133,0.775423240661621,0.0,21.75,,,,,,,,,,,,,,,,,,,,,,,,,,,,,,,,,,,,,,,,,,,,,,,,,,,,,,,
0.0,-1.0764303337573722e-10,2.7438199520111084,0.7628077983856201,1.6498782340335083e-09,0.0358369909226894,-0.2333555966615677,9.516684107424567e-10,0.0031686525326222,-0.1992689073085785,0.0,3.303766250610352,-0.46018104553222655,0.1917510479688644,12.5,0.0,3.4006834030151367,-0.282797622680664,0.1917510479688644,12.75,0.0,2.756953239440918,0.8469488143920898,0.1917510479688644,13.25,0.0,2.783775329589844,0.933494758605957,0.1917510479688644,15.0,0.0,2.6772022247314453,0.7539655685424804,0.0,21.25,0.0,2.7447938919067383,0.6835128784179687,0.0,26.75,0.0,2.776980400085449,0.6906654357910156,0.0,25.5,,,,,,,,,,,,,,,,,,,,,,,,,,,,,,
0.0,-1.0595660460133159e-10,2.744060754776001,0.7646623969078064,1.6519312584506451e-09,0.0380274541676044,-0.2306949198246002,9.530618516606635e-10,0.0070309001021087,-0.1972030997276306,0.0,2.736210823059082,0.8573200225830078,0.1917510479688644,14.5,0.0,2.773404121398926,0.9156133651733398,0.1917510479688644,14.75,0.0,3.0924081802368164,0.05122680664062501,0.0,17.0,0.0,2.670764923095703,0.775423240661621,0.0,21.5,0.0,3.186821937561035,2.0843412399291994,0.0,14.25,0.0,3.139972686767578,2.397265625,0.0,17.0,0.0,3.303050994873047,2.5059844970703127,0.0,14.0,,,,,,,,,,,,,,,,,,,,,,,,,,,,,,
0.0,-1.0595660460133159e-10,2.744060754776001,0.7646623969078064,1.6519312584506451e-09,0.0380274541676044,-0.2306949198246002,9.530618516606635e-10,0.0070309001021087,-0.1972030997276306,0.0,3.0716657638549805,0.1706745147705079,0.0,17.25,0.0,3.232598304748535,1.9473697662353515,0.0,13.75,,,,,,,,,,,,,,,,,,,,,,,,,,,,,,,,,,,,,,,,,,,,,,,,,,,,,,,
0.0,-1.0533513644661595e-10,2.7441205978393555,0.7640617609024047,1.6526046087150803e-09,0.0370383374392986,-0.2315802425146103,9.53365830724806e-10,0.0050677484832704,-0.1979385912418365,0.0,2.7576684951782227,0.6842281341552734,-0.1917510479688644,12.5,0.0,3.0258893966674805,0.3655817031860351,0.0,17.25,0.0,3.255128860473633,1.9666816711425779,0.0,14.0,,,,,,,,,,,,,,,,,,,,,,,,,,,,,,,,,,,,,,,,,,,,,,,,,,
0.0,-1.0533513644661595e-10,2.7441205978393555,0.7640617609024047,1.6526046087150803e-09,0.0370383374392986,-0.2315802425146103,9.53365830724806e-10,0.0050677484832704,-0.1979385912418365,0.0,3.121376037597656,2.1623041152954103,0.0,12.75,,,,,,,,,,,,,,,,,,,,,,,,,,,,,,,,,,,,,,,,,,,,,,,,,,,,,,,,,,,,
0.0,-1.0471123967903395e-10,2.7441349029541016,0.7624848008155822,1.653222447828284e-09,0.0363075323402881,-0.2339661568403244,9.53622958377309e-10,0.0035721361637115,-0.1998198628425598,0.0,2.737283706665039,0.555839729309082,-0.1917510479688644,12.25,0.0,3.046274185180664,0.4431869506835937,0.0,17.25,0.0,2.6918649673461914,0.7807876586914062,0.0,18.25,0.0,2.737998962402344,0.8026029586791992,0.0,25.0,0.0,2.776622772216797,0.8176233291625976,0.0,24.25,,,,,,,,,,,,,,,,,,,,,,,,,,,,,,,,,,,,,,,,
0.0,-1.0471123967903395e-10,2.7441349029541016,0.7624848008155822,1.653222447828284e-09,0.0363075323402881,-0.2339661568403244,9.53622958377309e-10,0.0035721361637115,-0.1998198628425598,,,,,,,,,,,,,,,,,,,,,,,,,,,,,,,,,,,,,,,,,,,,,,,,,,,,,,,,,,,,,,,,,
0.0,-1.0351181023438015e-10,2.7445318698883057,0.7597733855247497,1.6545100844922443e-09,0.0348171517252922,-0.2381181269884109,9.54197609814855e-10,4.55598346889019e-05,-0.2031727731227874,0.0,2.754449844360352,0.5948211669921875,-0.1917510479688644,16.5,0.0,2.78627872467041,0.5679990768432617,-0.1917510479688644,14.75,,,,,,,,,,,,,,,,,,,,,,,,,,,,,,,,,,,,,,,,,,,,,,,,,,,,,,,
0.0,-1.0233419667216026e-10,2.74440598487854,0.7614396333694458,1.655861447957818e-09,0.0321343466639518,-0.235332652926445,9.548323243180332e-10,-0.0046166530810296,-0.2010159194469452,0.0,2.7365684509277344,0.8734132766723632,-0.1917510479688644,18.5,0.0,2.7573108673095703,0.8626844406127929,-0.1917510479688644,17.75,0.0,2.673625946044922,0.8480216979980468,0.0,19.75,0.0,2.7201175689697266,0.8548166275024414,0.0,26.0,0.0,2.748727798461914,0.8748437881469726,0.0,24.75,,,,,,,,,,,,,,,,,,,,,,,,,,,,,,,,,,,,,,,,
0.0,-1.0118050841612103e-10,2.744269371032715,0.7629974007606506,1.6571759520189742e-09,0.0295366272330284,-0.2327369898557663,9.554462776506512e-10,-0.0091158878058195,-0.1990184634923935,0.0,2.7358531951904297,0.8666183471679687,-0.1917510479688644,18.0,0.0,2.755165100097656,0.8605386734008789,-0.1917510479688644,17.5,0.0,2.914309501647949,0.7704164505004882,0.0,16.75,0.0,2.6689767837524414,0.8777048110961914,0.0,20.25,0.0,2.719759941101074,0.8719827651977539,0.0,26.75,0.0,2.7494430541992188,0.8644725799560546,0.0,25.5,,,,,,,,,,,,,,,,,,,,,,,,,,,,,,,,,,,
0.0,-1.0005372225174723e-10,2.74420166015625,0.76425142288208,1.6584594808577435e-09,0.0270869378000497,-0.2306499481201172,9.560454650170414e-10,-0.0134622026234865,-0.1974436640739441,0.0,2.743363380432129,0.831570816040039,-0.1917510479688644,15.75,0.0,2.756953239440918,0.8612539291381835,-0.1917510479688644,15.25,,,,,,,,,,,,,,,,,,,,,,,,,,,,,,,,,,,,,,,,,,,,,,,,,,,,,,,
0.0,-9.896068686732208e-11,2.7444183826446533,0.7643004179000854,1.659711146295706e-09,0.0250548105686903,-0.2305137366056442,9.566316627740432e-10,-0.0175276957452297,-0.1974524855613708,0.0,2.7494430541992188,0.763979148864746,-0.1917510479688644,13.5,0.0,2.7916431427001958,0.7689859390258789,-0.1917510479688644,12.75,,,,,,,,,,,,,,,,,,,,,,,,,,,,,,,,,,,,,,,,,,,,,,,,,,,,,,,
0.0,-9.896068686732208e-11,2.7444183826446533,0.7643004179000854,1.659711146295706e-09,0.0250548105686903,-0.2305137366056442,9.566316627740432e-10,-0.0175276957452297,-0.1974524855613708,0.0,3.2379627227783203,-0.5610321044921875,0.0,16.0,0.0,3.305196762084961,-0.6765459060668946,0.0,14.75,0.0,2.742648124694824,0.8244182586669921,0.0,29.75,0.0,2.6886463165283203,0.8412267684936523,0.0,22.5,,,,,,,,,,,,,,,,,,,,,,,,,,,,,,,,,,,,,,,,,,,,,
0.0,-9.896068686732208e-11,2.7444183826446533,0.7643004179000854,1.659711146295706e-09,0.0250548105686903,-0.2305137366056442,9.566316627740432e-10,-0.0175276957452297,-0.1974524855613708,0.0,2.750515937805176,0.8176233291625976,0.0,29.25,,,,,,,,,,,,,,,,,,,,,,,,,,,,,,,,,,,,,,,,,,,,,,,,,,,,,,,,,,,,
0.0,-9.896068686732208e-11,2.7444183826446533,0.7643004179000854,1.659711146295706e-09,0.0250548105686903,-0.2305137366056442,9.566316627740432e-10,-0.0175276957452297,-0.1974524855613708,,,,,,,,,,,,,,,,,,,,,,,,,,,,,,,,,,,,,,,,,,,,,,,,,,,,,,,,,,,,,,,,,
0.0,-9.825617403036445e-11,2.7447774410247803,0.7653848052024841,1.660655724045057e-09,0.026101903989911,-0.228981465101242,9.573016823694047e-10,-0.0160080920904874,-0.1963120400905609,0.0,2.797365188598633,0.924196434020996,0.1917510479688644,12.5,0.0,3.269791603088379,-0.27314167022705077,0.0,16.25,0.0,3.392457962036133,-0.18194656372070311,0.0,14.25,,,,,,,,,,,,,,,,,,,,,,,,,,,,,,,,,,,,,,,,,,,,,,,,,,
0.0,-9.825617403036445e-11,2.7447774410247803,0.7653848052024841,1.660655724045057e-09,0.026101903989911,-0.228981465101242,9.573016823694047e-10,-0.0160080920904874,-0.1963120400905609,0.0,3.269791603088379,-0.23308734893798827,0.0,16.0,0.0,3.4085512161254883,-0.07501583099365228,0.0,13.5,0.0,2.7104616165161133,0.7668401718139648,0.0,20.75,0.0,2.7608871459960938,0.8043910980224609,0.0,28.75,0.0,2.774477005004883,0.8011724472045898,0.0,28.75,,,,,,,,,,,,,,,,,,,,,,,,,,,,,,,,,,,,,,,,
0.0,-9.68420552083238e-11,2.745601177215576,0.7614435672760009,1.662281534642318e-09,0.0297692660242319,-0.2353993505239486,9.5841823366527e-10,-0.0106723448261618,-0.2013732492923736,0.0,2.8134584426879883,0.4506971359252929,0.1917510479688644,13.0,0.0,2.74658203125,0.5290176391601562,0.1917510479688644,15.75,0.0,3.276228904724121,-0.24381618499755858,0.0,16.0,0.0,2.7140378952026367,0.6988908767700195,0.0,20.0,,,,,,,,,,,,,,,,,,,,,,,,,,,,,,,,,,,,,,,,,,,,,
0.0,-9.580641835427171e-11,2.745603561401367,0.7615931153297424,1.6634180699526267e-09,0.0276992078870534,-0.2350243479013443,9.589243843421966e-10,-0.0144973946735262,-0.2011182904243469,0.0,2.74050235748291,0.7725622177124023,-0.1917510479688644,18.5,0.0,2.7687549591064453,0.7668401718139648,-0.1917510479688644,17.25,0.0,2.7283430099487305,0.649538230895996,0.0,21.0,0.0,2.7751922607421875,0.6849433898925781,0.0,28.75,,,,,,,,,,,,,,,,,,,,,,,,,,,,,,,,,,,,,,,,,,,,,
0.0,-9.446810000923732e-11,2.746170282363892,0.7617002248764038,1.6650990586342116e-09,0.0302204862236976,-0.2351583391427993,9.60106882885725e-10,-0.0106153758242726,-0.2013098299503326,0.0,2.775907516479492,0.7714893341064453,0.1917510479688644,16.0,0.0,2.7930736541748047,0.7761384963989257,0.1917510479688644,16.5,0.0,3.279447555541992,-0.4101131439208984,0.0,18.75,0.0,3.377079963684082,-0.2570484161376953,0.0,16.25,0.0,3.437519073486328,1.6601945877075195,0.0,12.75,0.0,3.3119916915893555,2.2248889923095705,0.0,18.75,0.0,3.395676612854004,2.3672248840332033,0.0,17.75,,,,,,,,,,,,,,,,,,,,,,,,,,,,,,
0.0,-9.316439286699564e-11,2.746666431427002,0.7623791813850402,1.66675495627544e-09,0.032526146620512,-0.2343858182430267,9.61275614663748e-10,-0.0069897011853754,-0.2007855325937271,0.0,2.766966819763184,0.8115436553955078,0.1917510479688644,13.75,0.0,2.7948617935180664,0.819053840637207,0.1917510479688644,14.5,0.0,3.292679786682129,2.267089080810547,0.0,17.75,0.0,3.383874893188477,2.385463905334473,0.0,17.25,,,,,,,,,,,,,,,,,,,,,,,,,,,,,,,,,,,,,,,,,,,,,
0.0,-9.188916294533556e-11,2.7469940185546875,0.7638030767440795,1.668378102337442e-09,0.0345553532242774,-0.2324083149433136,9.624221419812784e-10,-0.0035818004980683,-0.1992855966091156,0.0,2.759099006652832,0.8769895553588867,0.1917510479688644,16.0,0.0,2.7784109115600586,0.8644725799560546,0.1917510479688644,16.5,0.0,3.2826662063598637,-0.5038116455078125,0.0,21.5,0.0,3.316283226013184,-0.48235397338867186,0.0,19.0,0.0,3.280162811279297,2.317514610290528,0.0,17.25,0.0,3.380656242370605,2.390470695495605,0.0,16.5,,,,,,,,,,,,,,,,,,,,,,,,,,,,,,,,,,,
0.0,-9.188916294533556e-11,2.7469940185546875,0.7638030767440795,1.668378102337442e-09,0.0345553532242774,-0.2324083149433136,9.624221419812784e-10,-0.0035818004980683,-0.1992855966091156,0.0,3.3180713653564453,-0.47555904388427733,0.0,19.0,0.0,3.3305883407592773,2.2488500595092775,0.0,16.0,0.0,3.3985376358032227,2.362933349609375,0.0,15.5,,,,,,,,,,,,,,,,,,,,,,,,,,,,,,,,,,,,,,,,,,,,,,,,,,
0.0,-9.188916294533556e-11,2.7469940185546875,0.7638030767440795,1.668378102337442e-09,0.0345553532242774,-0.2324083149433136,9.624221419812784e-10,-0.0035818004980683,-0.1992855966091156,0.0,3.2379627227783203,2.3901130676269533,0.0,14.0,0.0,3.311276435852051,2.493825149536133,0.0,13.5,,,,,,,,,,,,,,,,,,,,,,,,,,,,,,,,,,,,,,,,,,,,,,,,,,,,,,,
0.0,-9.188916294533556e-11,2.7469940185546875,0.7638030767440795,1.668378102337442e-09,0.0345553532242774,-0.2324083149433136,9.624221419812784e-10,-0.0035818004980683,-0.1992855966091156,0.0,3.2132863998413086,2.4244453430175783,0.0,17.75,0.0,3.3359527587890625,2.4580623626708986,0.0,17.5,,,,,,,,,,,,,,,,,,,,,,,,,,,,,,,,,,,,,,,,,,,,,,,,,,,,,,,
0.0,-9.188916294533556e-11,2.7469940185546875,0.7638030767440795,1.668378102337442e-09,0.0345553532242774,-0.2324083149433136,9.624221419812784e-10,-0.0035818004980683,-0.1992855966091156,0.0,3.231167793273926,2.3994113922119142,0.0,16.0,0.0,3.3284425735473637,2.4691488265991213,0.0,15.75,,,,,,,,,,,,,,,,,,,,,,,,,,,,,,,,,,,,,,,,,,,,,,,,,,,,,,,
0.0,-9.188916294533556e-11,2.7469940185546875,0.7638030767440795,1.668378102337442e-09,0.0345553532242774,-0.2324083149433136,9.624221419812784e-10,-0.0035818004980683,-0.1992855966091156,0.0,3.197193145751953,2.411570739746094,0.0,15.25,0.0,3.280520439147949,2.5378133773803713,0.0,15.25,,,,,,,,,,,,,,,,,,,,,,,,,,,,,,,,,,,,,,,,,,,,,,,,,,,,,,,
0.0,-9.188916294533556e-11,2.7469940185546875,0.7638030767440795,1.668378102337442e-09,0.0345553532242774,-0.2324083149433136,9.624221419812784e-10,-0.0035818004980683,-0.1992855966091156,0.0,3.393888473510742,2.370085906982422,0.0,12.5,0.0,3.235459327697754,2.306785774230957,0.0,13.0,,,,,,,,,,,,,,,,,,,,,,,,,,,,,,,,,,,,,,,,,,,,,,,,,,,,,,,
0.0,-9.188916294533556e-11,2.7469940185546875,0.7638030767440795,1.668378102337442e-09,0.0345553532242774,-0.2324083149433136,9.624221419812784e-10,-0.0035818004980683,-0.1992855966091156,0.0,3.331303596496582,1.811471176147461,0.0,13.5,0.0,3.167152404785156,2.415862274169922,0.0,18.25,0.0,3.3109188079833984,2.4945404052734372,0.0,16.5,,,,,,,,,,,,,,,,,,,,,,,,,,,,,,,,,,,,,,,,,,,,,,,,,,
0.0,-9.188916294533556e-11,2.7469940185546875,0.7638030767440795,1.668378102337442e-09,0.0345553532242774,-0.2324083149433136,9.624221419812784e-10,-0.0035818004980683,-0.1992855966091156,0.0,3.3066272735595703,-0.38650970458984374,0.0,17.25,0.0,3.37064266204834,-0.3067586898803711,0.0,16.25,0.0,2.658247947692871,0.86375732421875,0.0,20.75,0.0,3.4618377685546875,1.5675689697265625,0.0,15.0,0.0,3.2508373260498047,2.2599365234375,0.0,18.5,0.0,3.3370256423950195,2.456274223327637,0.0,16.75,,,,,,,,,,,,,,,,,,,,,,,,,,,,,,,,,,,
0.0,-9.188916294533556e-11,2.7469940185546875,0.7638030767440795,1.668378102337442e-09,0.0345553532242774,-0.2324083149433136,9.624221419812784e-10,-0.0035818004980683,-0.1992855966091156,0.0,3.304123878479004,-0.316057014465332,0.0,15.25,0.0,3.423929214477539,-0.07608871459960936,0.0,15.0,0.0,3.302335739135742,2.166238021850586,0.0,20.25,0.0,3.362059593200684,2.418723297119141,0.0,17.75,,,,,,,,,,,,,,,,,,,,,,,,,,,,,,,,,,,,,,,,,,,,,
0.0,-9.188916294533556e-11,2.7469940185546875,0.7638030767440795,1.668378102337442e-09,0.0345553532242774,-0.2324083149433136,9.624221419812784e-10,-0.0035818004980683,-0.1992855966091156,0.0,3.302335739135742,-0.30818920135498046,0.0,16.25,0.0,3.3731460571289062,-0.2863739013671875,0.0,15.0,0.0,2.911090850830078,0.8512403488159179,0.0,15.75,0.0,2.6525259017944336,0.8129741668701171,0.0,19.0,0.0,2.709031105041504,0.8530284881591796,0.0,23.5,0.0,2.739429473876953,0.9753372192382812,0.0,23.0,0.0,3.2933950424194336,2.182331275939941,0.0,19.75,0.0,3.345966339111328,2.4433996200561525,0.0,17.25,,,,,,,,,,,,,,,,,,,,,,,,,
0.0,-9.188916294533556e-11,2.7469940185546875,0.7638030767440795,1.668378102337442e-09,0.0345553532242774,-0.2324083149433136,9.624221419812784e-10,-0.0035818004980683,-0.1992855966091156,0.0,3.301620483398437,-0.3550384521484375,0.0,15.5,0.0,3.382444381713867,-0.2813671112060547,0.0,15.0,0.0,2.74050235748291,0.7650520324707031,0.0,23.0,0.0,2.922534942626953,0.7561113357543945,0.0,17.0,0.0,2.786993980407715,0.8598234176635742,0.0,23.5,,,,,,,,,,,,,,,,,,,,,,,,,,,,,,,,,,,,,,,,
0.0,-9.188916294533556e-11,2.7469940185546875,0.7638030767440795,1.668378102337442e-09,0.0345553532242774,-0.2324083149433136,9.624221419812784e-10,-0.0035818004980683,-0.1992855966091156,0.0,3.2726526260375977,-0.4444454193115234,0.0,15.25,0.0,3.3642053604125977,-0.3861520767211914,0.0,14.25,0.0,2.7930736541748047,0.8215572357177734,0.0,23.25,0.0,2.917170524597168,0.7543231964111328,0.0,17.25,,,,,,,,,,,,,,,,,,,,,,,,,,,,,,,,,,,,,,,,,,,,,
0.0,-9.124234701118894e-11,2.7468366622924805,0.7638491511344909,1.6690941961883252e-09,0.035653568804264,-0.2323677837848663,9.62909862955996e-10,-0.0013229674659669,-0.1991874724626541,0.0,2.7104616165161133,0.7714893341064453,0.1917510479688644,12.25,0.0,3.2694339752197266,-0.3403757095336914,0.0,14.75,0.0,2.901434898376465,0.796165657043457,0.0,16.25,,,,,,,,,,,,,,,,,,,,,,,,,,,,,,,,,,,,,,,,,,,,,,,,,,
0.0,-9.124234701118894e-11,2.7468366622924805,0.7638491511344909,1.6690941961883252e-09,0.035653568804264,-0.2323677837848663,9.62909862955996e-10,-0.0013229674659669,-0.1991874724626541,0.0,3.2722949981689453,-0.3958080291748047,0.0,14.5,0.0,2.9071569442749023,0.7239248275756835,0.0,15.25,,,,,,,,,,,,,,,,,,,,,,,,,,,,,,,,,,,,,,,,,,,,,,,,,,,,,,,
0.0,-8.982403015833639e-11,2.7460508346557617,0.7635212063789367,1.670419136345913e-09,0.0325958095490932,-0.2325227111577987,9.633854824997454e-10,-0.005909729283303,-0.1992069035768509,0.0,2.668619155883789,0.7371570587158203,-0.1917510479688644,12.75,0.0,2.7108192443847656,0.7457401275634765,-0.1917510479688644,18.25,0.0,2.7369260787963867,0.7478858947753906,-0.1917510479688644,15.25,0.0,3.2776594161987305,-0.5377862930297852,0.0,14.0,,,,,,,,,,,,,,,,,,,,,,,,,,,,,,,,,,,,,,,,,,,,,
0.0,-8.795551786899836e-11,2.745051860809326,0.7645063519477844,1.6724124307643251e-09,0.0355704315006732,-0.2309692353010177,9.647400656120908e-10,0.0010789181105792,-0.1976857036352157,0.0,2.685427665710449,0.7925893783569335,0.1917510479688644,17.25,0.0,2.640366554260254,0.8033182144165039,0.1917510479688644,13.25,0.0,2.7118921279907227,0.8415843963623046,0.1917510479688644,14.0,,,,,,,,,,,,,,,,,,,,,,,,,,,,,,,,,,,,,,,,,,,,,,,,,,
0.0,-8.795551786899836e-11,2.745051860809326,0.7645063519477844,1.6724124307643251e-09,0.0355704315006732,-0.2309692353010177,9.647400656120908e-10,0.0010789181105792,-0.1976857036352157,,,,,,,,,,,,,,,,,,,,,,,,,,,,,,,,,,,,,,,,,,,,,,,,,,,,,,,,,,,,,,,,,
0.0,-8.795551786899836e-11,2.745051860809326,0.7645063519477844,1.6724124307643251e-09,0.0355704315006732,-0.2309692353010177,9.647400656120908e-10,0.0010789181105792,-0.1976857036352157,0.0,3.09133529663086,2.3926164627075197,0.0,14.5,,,,,,,,,,,,,,,,,,,,,,,,,,,,,,,,,,,,,,,,,,,,,,,,,,,,,,,,,,,,
0.0,-8.708728183037806e-11,2.744704484939575,0.7661145448684692,1.6733329166740416e-09,0.0331672057509422,-0.22829669713974,9.651152099721114e-10,-0.0027625311631709,-0.1956020593643188,0.0,2.70688533782959,0.8744861602783203,-0.1917510479688644,14.75,0.0,2.743721008300781,0.8937980651855468,-0.1917510479688644,13.0,0.0,2.821683883666992,0.8837844848632812,0.0,17.0,0.0,3.126382827758789,2.32860107421875,0.0,14.0,,,,,,,,,,,,,,,,,,,,,,,,,,,,,,,,,,,,,,,,,,,,,
0.0,-8.708728183037806e-11,2.744704484939575,0.7661145448684692,1.6733329166740416e-09,0.0331672057509422,-0.22829669713974,9.651152099721114e-10,-0.0027625311631709,-0.1956020593643188,0.0,3.2508373260498047,-0.47162513732910155,0.0,14.0,0.0,2.8145313262939453,0.8734132766723632,0.0,18.0,0.0,3.000140190124512,2.4909641265869142,0.0,13.25,,,,,,,,,,,,,,,,,,,,,,,,,,,,,,,,,,,,,,,,,,,,,,,,,,
0.0,-8.708728183037806e-11,2.744704484939575,0.7661145448684692,1.6733329166740416e-09,0.0331672057509422,-0.22829669713974,9.651152099721114e-10,-0.0027625311631709,-0.1956020593643188,0.0,3.260493278503418,-0.4222724914550781,0.0,13.75,0.0,3.1714439392089844,2.412643623352051,0.0,17.0,0.0,3.3774375915527344,2.3954774856567385,0.0,15.25,,,,,,,,,,,,,,,,,,,,,,,,,,,,,,,,,,,,,,,,,,,,,,,,,,
0.0,-8.708728183037806e-11,2.744704484939575,0.7661145448684692,1.6733329166740416e-09,0.0331672057509422,-0.22829669713974,9.651152099721114e-10,-0.0027625311631709,-0.1956020593643188,0.0,3.249049186706543,-0.4712675094604492,0.0,13.75,0.0,2.6847124099731445,0.762906265258789,0.0,26.5,0.0,3.255844116210937,2.3361112594604494,0.0,16.25,0.0,3.3724308013916016,2.4029876708984372,0.0,14.75,,,,,,,,,,,,,,,,,,,,,,,,,,,,,,,,,,,,,,,,,,,,,
0.0,-8.650162530710047e-11,2.7446839809417725,0.7649117827415466,1.6739567509915787e-09,0.0345559231936931,-0.230201780796051,9.655419797027776e-10,-0.0002525940071791,-0.1970255672931671,0.0,2.717256546020508,0.5840923309326171,0.1917510479688644,15.25,0.0,3.2901763916015625,-0.42406063079833983,0.0,15.75,0.0,3.325223922729492,-0.5066726684570313,0.0,12.75,0.0,2.6721954345703125,0.7704164505004882,0.0,24.25,0.0,2.700448036193848,0.7865097045898437,0.0,29.25,0.0,2.72369384765625,0.8197690963745117,0.0,26.0,0.0,2.809882164001465,1.0293390274047851,0.0,15.75,0.0,3.4067630767822266,2.3500587463378904,0.0,13.5,0.0,3.268718719482422,2.29498405456543,0.0,15.5,,,,,,,,,,,,,,,,,,,,
0.0,-8.650162530710047e-11,2.7446839809417725,0.7649117827415466,1.6739567509915787e-09,0.0345559231936931,-0.230201780796051,9.655419797027776e-10,-0.0002525940071791,-0.1970255672931671,0.0,2.6661157608032227,0.7621910095214843,0.0,21.75,0.0,2.718329429626465,0.7557537078857421,0.0,26.5,0.0,2.74050235748291,0.8129741668701171,0.0,24.75,0.0,2.8738975524902344,0.8415843963623046,0.0,14.25,0.0,3.2569169998168945,2.3078586578369142,0.0,14.0,0.0,3.360629081726074,2.421226692199707,0.0,12.75,,,,,,,,,,,,,,,,,,,,,,,,,,,,,,,,,,,
0.0,-8.650162530710047e-11,2.7446839809417725,0.7649117827415466,1.6739567509915787e-09,0.0345559231936931,-0.230201780796051,9.655419797027776e-10,-0.0002525940071791,-0.1970255672931671,0.0,3.24404239654541,2.3922588348388674,0.0,12.75,0.0,3.3409595489501958,2.4505521774291994,0.0,12.25,,,,,,,,,,,,,,,,,,,,,,,,,,,,,,,,,,,,,,,,,,,,,,,,,,,,,,,
0.0,-8.650162530710047e-11,2.7446839809417725,0.7649117827415466,1.6739567509915787e-09,0.0345559231936931,-0.230201780796051,9.655419797027776e-10,-0.0002525940071791,-0.1970255672931671,,,,,,,,,,,,,,,,,,,,,,,,,,,,,,,,,,,,,,,,,,,,,,,,,,,,,,,,,,,,,,,,,
