tid,posx,posy,posz,velx,vely,velz,accx,accy,accz,pointx1,pointy1,pointz1,doppler1,snr1,pointx2,pointy2,pointz2,doppler2,snr2,pointx3,pointy3,pointz3,doppler3,snr3,pointx4,pointy4,pointz4,doppler4,snr4,pointx5,pointy5,pointz5,doppler5,snr5,pointx6,pointy6,pointz6,doppler6,snr6
0.0,0.0547223016619682,2.983891487121582,-0.44997403694214866,0.0760672464966774,0.1338182240724563,-6.563062015629839e-06,0.0506102219223976,0.1218112036585807,-4.770568921230733e-06,0.0,3.124237060546875,-0.35487098693847663,0.0,20.0,0.0,3.177523612976074,-0.333413314819336,0.0,17.25,,,,,,,,,,,,,,,,,,,,
0.0,0.0464906096458435,2.9789693355560303,-0.4499743020598544,0.0637653097510337,0.1197368055582046,-8.684197382535785e-06,0.041805624961853,0.1024644821882247,-6.1281712078198325e-06,0.0,2.9429197311401367,-0.5344001770019531,-0.1917510479688644,12.5,0.0,2.9032230377197266,-0.6306020736694335,0.0,12.75,0.0,3.046274185180664,-0.4525033950805663,0.0,20.75,,,,,,,,,,,,,,,
0.0,0.0394203104078769,2.9789845943450928,-0.4499757070800115,0.0541431196033954,0.1219706311821937,-9.399132068210749e-06,0.0354358032345771,0.106605663895607,-6.2879676079319324e-06,0.0,2.947568893432617,-0.5572883605957031,0.1917510479688644,12.0,0.0,2.9000043869018555,-0.612363052368164,0.0,12.25,0.0,3.043055534362793,-0.4696695327758788,0.0,20.0,,,,,,,,,,,,,,,
0.0,0.0394203104078769,2.9789845943450928,-0.4499757070800115,0.0541431196033954,0.1219706311821937,-9.399132068210749e-06,0.0354358032345771,0.106605663895607,-6.2879676079319324e-06,0.0,2.8477907180786133,-0.7504074096679687,0.0,14.0,0.0,3.03804874420166,-0.4560796737670898,0.0,20.25,,,,,,,,,,,,,,,,,,,,
0.0,0.0336859226226806,2.9824626445770264,-0.4499773515664856,0.0463762879371643,0.1285708546638488,-1.0801883036037909e-05,0.0302807986736297,0.1142493709921836,-6.858263077447191e-06,0.0,2.981185913085937,-0.5161611557006835,0.1917510479688644,12.25,0.0,3.066658973693848,-0.4471389770507813,0.1917510479688644,12.25,0.0,2.83670425415039,-0.7704345703125,0.0,13.25,0.0,3.037691116333008,-0.4578678131103515,0.0,20.0,,,,,,,,,,
0.0,0.0398755706846714,2.98665452003479,-0.4499784983774589,0.0550413355231285,0.134811520576477,-1.2042765774822328e-05,0.0361246466636657,0.1201952397823333,-7.46637124393601e-06,0.0,3.018021583557129,-0.3473608016967773,0.1917510479688644,12.25,0.0,3.0770301818847656,-0.3402082443237304,0.1917510479688644,13.5,,,,,,,,,,,,,,,,,,,,
0.0,0.0398755706846714,2.98665452003479,-0.4499784983774589,0.0550413355231285,0.134811520576477,-1.2042765774822328e-05,0.0361246466636657,0.1201952397823333,-7.46637124393601e-06,,,,,,,,,,,,,,,,,,,,,,,,,,,,,,
0.0,0.0398755706846714,2.98665452003479,-0.4499784983774589,0.0550413355231285,0.134811520576477,-1.2042765774822328e-05,0.0361246466636657,0.1201952397823333,-7.46637124393601e-06,0.0,2.835988998413086,-0.771507453918457,0.0,12.5,,,,,,,,,,,,,,,,,,,,,,,,,
0.0,0.0398755706846714,2.98665452003479,-0.4499784983774589,0.0550413355231285,0.134811520576477,-1.2042765774822328e-05,0.0361246466636657,0.1201952397823333,-7.46637124393601e-06,0.0,2.845287322998047,-0.8036939620971679,0.0,12.75,,,,,,,,,,,,,,,,,,,,,,,,,
0.0,0.0398755706846714,2.98665452003479,-0.4499784983774589,0.0550413355231285,0.134811520576477,-1.2042765774822328e-05,0.0361246466636657,0.1201952397823333,-7.46637124393601e-06,0.0,2.8231143951416016,-0.7811634063720704,0.0,13.5,0.0,3.014445304870605,-0.6280986785888671,0.0,18.75,,,,,,,,,,,,,,,,,,,,
0.0,0.0398755706846714,2.98665452003479,-0.4499784983774589,0.0550413355231285,0.134811520576477,-1.2042765774822328e-05,0.0361246466636657,0.1201952397823333,-7.46637124393601e-06,0.0,3.054499626159668,-0.618442726135254,0.0,18.5,0.0,3.1145811080932617,-0.5626527786254881,0.0,22.5,0.0,3.1696557998657227,-0.5222408294677734,0.0,19.0,,,,,,,,,,,,,,,
0.0,0.0398755706846714,2.98665452003479,-0.4499784983774589,0.0550413355231285,0.134811520576477,-1.2042765774822328e-05,0.0361246466636657,0.1201952397823333,-7.46637124393601e-06,0.0,3.04412841796875,-0.5615798950195312,0.0,18.5,0.0,3.105282783508301,-0.4900543212890625,0.0,22.0,0.0,3.154277801513672,-0.4889814376831054,0.0,18.0,,,,,,,,,,,,,,,
0.0,0.0398755706846714,2.98665452003479,-0.4499784983774589,0.0550413355231285,0.134811520576477,-1.2042765774822328e-05,0.0361246466636657,0.1201952397823333,-7.46637124393601e-06,0.0,3.031611442565918,-0.5347578048706054,0.0,17.5,0.0,3.103494644165039,-0.4306880950927735,0.0,20.25,0.0,3.172159194946289,-0.473961067199707,0.0,17.0,,,,,,,,,,,,,,,
0.0,0.0398755706846714,2.98665452003479,-0.4499784983774589,0.0550413355231285,0.134811520576477,-1.2042765774822328e-05,0.0361246466636657,0.1201952397823333,-7.46637124393601e-06,0.0,3.036618232727051,-0.43176097869873054,0.0,18.25,0.0,3.085255622863769,-0.3326980590820312,0.0,20.75,0.0,3.1467676162719727,-0.3241149902343749,0.0,16.25,,,,,,,,,,,,,,,
0.0,0.0398755706846714,2.98665452003479,-0.4499784983774589,0.0550413355231285,0.134811520576477,-1.2042765774822328e-05,0.0361246466636657,0.1201952397823333,-7.46637124393601e-06,0.0,3.025531768798828,-0.48182888031005844,0.0,19.0,0.0,3.076314926147461,-0.41817111968994136,0.0,20.25,0.0,3.153204917907715,-0.3512947082519531,0.0,16.0,,,,,,,,,,,,,,,
0.0,0.0398755706846714,2.98665452003479,-0.4499784983774589,0.0550413355231285,0.134811520576477,-1.2042765774822328e-05,0.0361246466636657,0.1201952397823333,-7.46637124393601e-06,0.0,3.025531768798828,-0.4356948852539063,0.0,18.25,0.0,3.078818321228028,-0.3913490295410157,0.0,20.0,0.0,3.154993057250977,-0.41781349182128913,0.0,15.25,,,,,,,,,,,,,,,
0.0,0.0398755706846714,2.98665452003479,-0.4499784983774589,0.0550413355231285,0.134811520576477,-1.2042765774822328e-05,0.0361246466636657,0.1201952397823333,-7.46637124393601e-06,0.0,3.038763999938965,-0.45643730163574203,0.0,18.25,0.0,3.0902624130249023,-0.4346220016479492,0.0,20.75,0.0,3.156423568725586,-0.4128067016601563,0.0,16.5,,,,,,,,,,,,,,,
0.0,0.0479773990809917,2.98362398147583,-0.4499756432771391,0.0635860338807106,0.0967224985361099,-1.940915171871893e-05,0.0402560196816921,0.0542509332299232,-1.306789090449456e-05,0.0,3.1746625900268555,-0.3816930770874024,-0.1917510479688644,14.75,0.0,3.0219554901123047,-0.2704708099365235,-0.3835020959377289,14.25,0.0,3.105998039245605,-0.3119556427001952,-0.3835020959377289,16.75,0.0,3.0469894409179688,-0.42282028198242194,0.0,18.0,0.0,3.117084503173828,-0.41495246887207027,0.0,21.75,0.0,3.1696557998657227,-0.3673879623413086,0.0,18.5
0.0,0.0416400544345378,2.989318370819092,-0.4499764134863653,0.0544278249144554,0.0989855080842971,-2.2541717044077814e-05,0.0337980315089225,0.0510824657976627,-1.4982506399974229e-05,0.0,3.020882606506348,-0.4528610229492187,0.1917510479688644,14.75,0.0,3.087401390075684,-0.4442779541015625,0.1917510479688644,17.0,0.0,3.1528472900390625,-0.5222408294677734,-0.1917510479688644,12.5,0.0,3.045916557312012,-0.4471389770507813,0.0,17.75,0.0,3.121376037597656,-0.415667724609375,0.0,21.75,0.0,3.173232078552246,-0.38276596069335944,0.0,18.5
0.0,0.0416400544345378,2.989318370819092,-0.4499764134863653,0.0544278249144554,0.0989855080842971,-2.2541717044077814e-05,0.0337980315089225,0.0510824657976627,-1.4982506399974229e-05,0.0,3.0194520950317383,-0.565513801574707,0.0,17.75,0.0,3.105282783508301,-0.4675237655639648,0.0,20.25,0.0,3.171086311340332,-0.3713218688964844,0.0,16.75,,,,,,,,,,,,,,,
0.0,0.0405326858162879,2.986368656158448,-0.4499764989534014,0.0519717633724212,0.0841659903526306,-2.564195892773569e-05,0.0316035784780979,0.0277596246451139,-1.705833346932195e-05,0.0,2.982616424560547,-0.4128067016601563,-0.1917510479688644,16.75,0.0,3.0241012573242188,-0.42067451477050777,-0.1917510479688644,16.0,0.0,2.8384923934936523,-0.8480398178100585,0.0,12.25,,,,,,,,,,,,,,,
0.0,0.0405326858162879,2.986368656158448,-0.4499764989534014,0.0519717633724212,0.0841659903526306,-2.564195892773569e-05,0.0316035784780979,0.0277596246451139,-1.705833346932195e-05,0.0,2.8324127197265625,-0.7893888473510742,0.0,12.5,,,,,,,,,,,,,,,,,,,,,,,,,
0.0,0.0405326858162879,2.986368656158448,-0.4499764989534014,0.0519717633724212,0.0841659903526306,-2.564195892773569e-05,0.0316035784780979,0.0277596246451139,-1.705833346932195e-05,0.0,3.1728744506835938,-0.39206428527832027,0.0,17.0,,,,,,,,,,,,,,,,,,,,,,,,,
0.0,0.0405326858162879,2.986368656158448,-0.4499764989534014,0.0519717633724212,0.0841659903526306,-2.564195892773569e-05,0.0316035784780979,0.0277596246451139,-1.705833346932195e-05,0.0,3.018379211425781,-0.4778949737548827,0.0,18.25,0.0,3.094911575317383,-0.42067451477050777,0.0,20.25,0.0,3.1778812408447266,-0.3881303787231446,0.0,16.75,,,,,,,,,,,,,,,
0.0,0.0405326858162879,2.986368656158448,-0.4499764989534014,0.0519717633724212,0.0841659903526306,-2.564195892773569e-05,0.0316035784780979,0.0277596246451139,-1.705833346932195e-05,0.0,3.025531768798828,-0.4675237655639648,0.0,17.75,0.0,3.0809640884399414,-0.4103033065795899,0.0,19.5,0.0,3.167152404785156,-0.34628791809082027,0.0,15.0,,,,,,,,,,,,,,,
0.0,0.0409477241337299,2.98978590965271,-0.4499767648805572,0.0525589287281036,0.0883018001914024,-2.641528408275917e-05,0.0319717861711978,0.0309074334800243,-1.7517579181003384e-05,0.0,3.146052360534668,-0.4027931213378907,0.1917510479688644,12.5,0.0,3.011941909790039,-0.5032865524291992,0.0,18.0,0.0,3.08382511138916,-0.461444091796875,0.0,19.5,0.0,3.180384635925293,-0.3681032180786133,0.0,15.5,,,,,,,,,,
0.0,0.0409477241337299,2.98978590965271,-0.4499767648805572,0.0525589287281036,0.0883018001914024,-2.641528408275917e-05,0.0319717861711978,0.0309074334800243,-1.7517579181003384e-05,0.0,3.01516056060791,-0.47145767211914047,0.0,17.75,0.0,3.0759572982788086,-0.452145767211914,0.0,19.25,0.0,3.166437149047852,-0.3799049377441407,0.0,15.0,,,,,,,,,,,,,,,
0.0,0.04684629291296,2.989152669906616,-0.4499777651173644,0.0609441734850406,0.0900461077690124,-2.6351735868956894e-05,0.0377551615238189,0.0348673351109027,-1.7286487491219305e-05,0.0,2.9125213623046875,-0.2100317001342775,0.1917510479688644,14.0,0.0,3.001928329467773,-0.45321865081787094,0.0,16.75,,,,,,,,,,,,,,,,,,,,
0.0,0.04684629291296,2.989152669906616,-0.4499777651173644,0.0609441734850406,0.0900461077690124,-2.6351735868956894e-05,0.0377551615238189,0.0348673351109027,-1.7286487491219305e-05,0.0,3.083467483520508,-0.3566591262817383,0.0,18.5,0.0,3.1718015670776367,-0.3956405639648438,0.0,14.75,0.0,3.0069351196289062,-0.3384201049804687,0.0,17.0,,,,,,,,,,,,,,,
0.0,0.04684629291296,2.989152669906616,-0.4499777651173644,0.0609441734850406,0.0900461077690124,-2.6351735868956894e-05,0.0377551615238189,0.0348673351109027,-1.7286487491219305e-05,,,,,,,,,,,,,,,,,,,,,,,,,,,,,,
0.0,0.04684629291296,2.989152669906616,-0.4499777651173644,0.0609441734850406,0.0900461077690124,-2.6351735868956894e-05,0.0377551615238189,0.0348673351109027,-1.7286487491219305e-05,,,,,,,,,,,,,,,,,,,,,,,,,,,,,,
0.0,0.04684629291296,2.989152669906616,-0.4499777651173644,0.0609441734850406,0.0900461077690124,-2.6351735868956894e-05,0.0377551615238189,0.0348673351109027,-1.7286487491219305e-05,,,,,,,,,,,,,,,,,,,,,,,,,,,,,,
0.0,0.045236736536026,2.987913131713867,-0.4499788308196002,0.058967150747776,0.0915252119302749,-2.623574619065039e-05,0.0365949906408786,0.0391984172165393,-1.6980637155938894e-05,0.0,2.8864145278930664,-0.45965595245361324,0.1917510479688644,12.75,0.0,2.8781890869140625,-0.47288818359375,0.0,12.5,,,,,,,,,,,,,,,,,,,,
0.0,0.0536807067692279,2.990668535232544,-0.4499790839956404,0.0707122236490249,0.0947805568575859,-2.6784213332575742e-05,0.044504839926958,0.0415130853652954,-1.732194868964143e-05,0.0,3.104209899902344,-0.08843822479248059,0.1917510479688644,14.75,0.0,2.878904342651367,-0.4414169311523438,0.0,12.25,,,,,,,,,,,,,,,,,,,,
0.0,0.0591166764497756,2.99744725227356,-0.4499793191673233,0.0782917439937591,0.1017823368310928,-2.834908445947804e-05,0.0495778508484363,0.0455097742378711,-1.8333177649765275e-05,0.0,3.146052360534668,-0.3119556427001952,0.1917510479688644,16.75,0.0,3.185391426086426,-0.2844182968139648,0.1917510479688644,15.75,,,,,,,,,,,,,,,,,,,,
0.0,0.0665311142802238,3.003769874572754,-0.4499795526709931,0.0886212363839149,0.1079722791910171,-2.988661071867682e-05,0.0565145388245582,0.0485907979309558,-1.933449129865039e-05,0.0,3.154277801513672,-0.2468673706054689,0.1917510479688644,15.5,0.0,3.177165985107422,-0.2482978820800784,0.1917510479688644,13.75,,,,,,,,,,,,,,,,,,,,
0.0,0.0665311142802238,3.003769874572754,-0.4499795526709931,0.0886212363839149,0.1079722791910171,-2.988661071867682e-05,0.0565145388245582,0.0485907979309558,-1.933449129865039e-05,,,,,,,,,,,,,,,,,,,,,,,,,,,,,,
0.0,0.0665311142802238,3.003769874572754,-0.4499795526709931,0.0886212363839149,0.1079722791910171,-2.988661071867682e-05,0.0565145388245582,0.0485907979309558,-1.933449129865039e-05,0.0,3.0323266983032227,-0.521883201599121,0.0,16.25,0.0,3.11136245727539,-0.41817111968994136,0.0,19.5,0.0,3.173947334289551,-0.3784744262695313,0.0,15.75,,,,,,,,,,,,,,,
0.0,0.0665311142802238,3.003769874572754,-0.4499795526709931,0.0886212363839149,0.1079722791910171,-2.988661071867682e-05,0.0565145388245582,0.0485907979309558,-1.933449129865039e-05,,,,,,,,,,,,,,,,,,,,,,,,,,,,,,
0.0,0.0735276639461517,3.0044283866882324,-0.4499792587113916,0.0975223556160926,0.1025796607136726,-3.150591874145903e-05,0.0619842931628227,0.0377905257046222,-2.051045885309577e-05,0.0,3.105640411376953,-0.069126319885254,-0.1917510479688644,12.75,0.0,3.1081438064575195,-0.5386917114257812,0.0,18.75,0.0,3.1818151473999023,-0.34843368530273433,0.0,15.5,,,,,,,,,,,,,,,
0.0,0.0735276639461517,3.0044283866882324,-0.4499792587113916,0.0975223556160926,0.1025796607136726,-3.150591874145903e-05,0.0619842931628227,0.0377905257046222,-2.051045885309577e-05,0.0,3.109574317932129,-0.4925577163696288,0.0,19.5,0.0,3.17072868347168,-0.424966049194336,0.0,15.5,,,,,,,,,,,,,,,,,,,,
0.0,0.0735276639461517,3.0044283866882324,-0.4499792587113916,0.0975223556160926,0.1025796607136726,-3.150591874145903e-05,0.0619842931628227,0.0377905257046222,-2.051045885309577e-05,,,,,,,,,,,,,,,,,,,,,,,,,,,,,,
0.0,0.0735276639461517,3.0044283866882324,-0.4499792587113916,0.0975223556160926,0.1025796607136726,-3.150591874145903e-05,0.0619842931628227,0.0377905257046222,-2.051045885309577e-05,0.0,2.883195877075196,-0.5036441802978515,0.0,12.25,0.0,3.1585693359375,-0.349148941040039,0.0,16.75,,,,,,,,,,,,,,,,,,,,
0.0,0.0735276639461517,3.0044283866882324,-0.4499792587113916,0.0975223556160926,0.1025796607136726,-3.150591874145903e-05,0.0619842931628227,0.0377905257046222,-2.051045885309577e-05,0.0,2.8982162475585938,-0.46859664916992183,0.0,13.0,,,,,,,,,,,,,,,,,,,,,,,,,
0.0,0.0785238593816757,3.001417636871338,-0.4499794662417116,0.1029626280069351,0.0903566107153892,-3.3771713788155466e-05,0.0646950379014015,0.0192478913813829,-2.201601637352724e-05,0.0,2.961874008178711,-0.2779809951782226,-0.1917510479688644,15.25,0.0,2.992987632751465,-0.2268402099609376,-0.1917510479688644,13.5,0.0,2.908945083618164,-0.38956089019775386,0.0,12.75,,,,,,,,,,,,,,,
0.0,0.0785238593816757,3.001417636871338,-0.4499794662417116,0.1029626280069351,0.0903566107153892,-3.3771713788155466e-05,0.0646950379014015,0.0192478913813829,-2.201601637352724e-05,,,,,,,,,,,,,,,,,,,,,,,,,,,,,,
0.0,0.0810912251472473,3.0017459392547607,-0.4499793105289427,0.1056701466441154,0.0854823663830757,-3.5259385185781866e-05,0.0659532025456428,0.0098678963258862,-2.305888119735755e-05,0.0,3.0891895294189453,-0.2393571853637696,-0.1917510479688644,13.5,,,,,,,,,,,,,,,,,,,,,,,,,
0.0,0.0834961980581283,3.0036654472351074,-0.4499796144002175,0.1091910973191261,0.0880090668797493,-3.573562207748182e-05,0.0684343427419662,0.0119879459962248,-2.3320950276684016e-05,0.0,3.106355667114258,-0.2679674148559569,0.1917510479688644,13.5,,,,,,,,,,,,,,,,,,,,,,,,,
0.0,0.0834961980581283,3.0036654472351074,-0.4499796144002175,0.1091910973191261,0.0880090668797493,-3.573562207748182e-05,0.0684343427419662,0.0119879459962248,-2.3320950276684016e-05,,,,,,,,,,,,,,,,,,,,,,,,,,,,,,
0.0,0.0834961980581283,3.0036654472351074,-0.4499796144002175,0.1091910973191261,0.0880090668797493,-3.573562207748182e-05,0.0684343427419662,0.0119879459962248,-2.3320950276684016e-05,,,,,,,,,,,,,,,,,,,,,,,,,,,,,,
0.0,0.0834961980581283,3.0036654472351074,-0.4499796144002175,0.1091910973191261,0.0880090668797493,-3.573562207748182e-05,0.0684343427419662,0.0119879459962248,-2.3320950276684016e-05,,,,,,,,,,,,,,,,,,,,,,,,,,,,,,
0.0,0.0834961980581283,3.0036654472351074,-0.4499796144002175,0.1091910973191261,0.0880090668797493,-3.573562207748182e-05,0.0684343427419662,0.0119879459962248,-2.3320950276684016e-05,,,,,,,,,,,,,,,,,,,,,,,,,,,,,,
0.0,0.0834961980581283,3.0036654472351074,-0.4499796144002175,0.1091910973191261,0.0880090668797493,-3.573562207748182e-05,0.0684343427419662,0.0119879459962248,-2.3320950276684016e-05,0.0,2.9325485229492188,-0.4131643295288086,0.0,14.5,,,,,,,,,,,,,,,,,,,,,,,,,
0.0,0.0834961980581283,3.0036654472351074,-0.4499796144002175,0.1091910973191261,0.0880090668797493,-3.573562207748182e-05,0.0684343427419662,0.0119879459962248,-2.3320950276684016e-05,0.0,2.933621406555176,-0.4403440475463867,0.0,14.5,,,,,,,,,,,,,,,,,,,,,,,,,
0.0,0.0834961980581283,3.0036654472351074,-0.4499796144002175,0.1091910973191261,0.0880090668797493,-3.573562207748182e-05,0.0684343427419662,0.0119879459962248,-2.3320950276684016e-05,0.0,2.937197685241699,-0.4299728393554688,0.0,14.25,0.0,3.020524978637696,-0.3495065689086913,0.0,22.25,,,,,,,,,,,,,,,,,,,,
0.0,0.0834961980581283,3.0036654472351074,-0.4499796144002175,0.1091910973191261,0.0880090668797493,-3.573562207748182e-05,0.0684343427419662,0.0119879459962248,-2.3320950276684016e-05,0.0,2.93576717376709,-0.4718152999877929,0.0,14.5,0.0,3.0133724212646484,-0.3659574508666992,0.0,22.0,,,,,,,,,,,,,,,,,,,,
0.0,0.0834961980581283,3.0036654472351074,-0.4499796144002175,0.1091910973191261,0.0880090668797493,-3.573562207748182e-05,0.0684343427419662,0.0119879459962248,-2.3320950276684016e-05,0.0,2.9218196868896484,-0.5125848770141601,0.0,14.0,0.0,3.0094385147094727,-0.3870574951171875,0.0,21.25,0.0,3.05020809173584,-0.3151742935180663,0.0,22.0,,,,,,,,,,,,,,,
0.0,0.0834961980581283,3.0036654472351074,-0.4499796144002175,0.1091910973191261,0.0880090668797493,-3.573562207748182e-05,0.0684343427419662,0.0119879459962248,-2.3320950276684016e-05,0.0,2.888917922973633,-0.6602851867675781,0.0,13.0,0.0,2.9965639114379883,-0.4496423721313477,0.0,18.75,,,,,,,,,,,,,,,,,,,,
0.0,0.0834961980581283,3.0036654472351074,-0.4499796144002175,0.1091910973191261,0.0880090668797493,-3.573562207748182e-05,0.0684343427419662,0.0119879459962248,-2.3320950276684016e-05,0.0,2.889633178710937,-0.598773193359375,0.0,12.0,0.0,3.0069351196289062,-0.3681032180786133,0.0,18.5,,,,,,,,,,,,,,,,,,,,
0.0,0.0834961980581283,3.0036654472351074,-0.4499796144002175,0.1091910973191261,0.0880090668797493,-3.573562207748182e-05,0.0684343427419662,0.0119879459962248,-2.3320950276684016e-05,,,,,,,,,,,,,,,,,,,,,,,,,,,,,,
0.0,0.0834961980581283,3.0036654472351074,-0.4499796144002175,0.1091910973191261,0.0880090668797493,-3.573562207748182e-05,0.0684343427419662,0.0119879459962248,-2.3320950276684016e-05,,,,,,,,,,,,,,,,,,,,,,,,,,,,,,
0.0,0.0834961980581283,3.0036654472351074,-0.4499796144002175,0.1091910973191261,0.0880090668797493,-3.573562207748182e-05,0.0684343427419662,0.0119879459962248,-2.3320950276684016e-05,0.0,2.871394157409668,-0.5597917556762695,0.0,13.25,,,,,,,,,,,,,,,,,,,,,,,,,
0.0,0.0834961980581283,3.0036654472351074,-0.4499796144002175,0.1091910973191261,0.0880090668797493,-3.573562207748182e-05,0.0684343427419662,0.0119879459962248,-2.3320950276684016e-05,0.0,2.868533134460449,-0.543698501586914,0.0,12.75,,,,,,,,,,,,,,,,,,,,,,,,,
0.0,0.084257110953331,3.005879163742065,-0.44997985436675647,0.1104093044996261,0.0906086340546608,-3.631546496762894e-05,0.0693468376994133,0.0138760339468717,-2.365980253671296e-05,0.0,3.1349658966064453,-0.3423540115356446,0.1917510479688644,12.75,,,,,,,,,,,,,,,,,,,,,,,,,
0.0,0.084257110953331,3.005879163742065,-0.44997985436675647,0.1104093044996261,0.0906086340546608,-3.631546496762894e-05,0.0693468376994133,0.0138760339468717,-2.365980253671296e-05,,,,,,,,,,,,,,,,,,,,,,,,,,,,,,
0.0,0.084257110953331,3.005879163742065,-0.44997985436675647,0.1104093044996261,0.0906086340546608,-3.631546496762894e-05,0.0693468376994133,0.0138760339468717,-2.365980253671296e-05,,,,,,,,,,,,,,,,,,,,,,,,,,,,,,
0.0,0.084257110953331,3.005879163742065,-0.44997985436675647,0.1104093044996261,0.0906086340546608,-3.631546496762894e-05,0.0693468376994133,0.0138760339468717,-2.365980253671296e-05,0.0,2.8928518295288086,-0.4889814376831054,0.0,14.0,0.0,3.161787986755371,-0.3899185180664063,0.0,18.5,0.0,3.0105113983154297,-0.2940742492675781,0.0,20.25,0.0,3.086686134338379,-0.3223268508911132,0.0,22.25,,,,,,,,,,
0.0,0.084257110953331,3.005879163742065,-0.44997985436675647,0.1104093044996261,0.0906086340546608,-3.631546496762894e-05,0.0693468376994133,0.0138760339468717,-2.365980253671296e-05,0.0,2.897500991821289,-0.3630964279174805,0.0,12.25,0.0,3.0984878540039062,-0.35200996398925777,0.0,22.5,0.0,3.02731990814209,-0.2525894165039062,0.0,19.75,,,,,,,,,,,,,,,
0.0,0.084257110953331,3.005879163742065,-0.44997985436675647,0.1104093044996261,0.0906086340546608,-3.631546496762894e-05,0.0693468376994133,0.0138760339468717,-2.365980253671296e-05,0.0,3.094196319580078,-0.36345405578613277,0.0,22.0,0.0,3.15248966217041,-0.39170665740966804,0.0,17.75,0.0,2.892494201660156,-0.1985876083374025,0.0,12.25,0.0,3.023386001586914,-0.2297012329101564,0.0,19.25,,,,,,,,,,
0.0,0.084257110953331,3.005879163742065,-0.44997985436675647,0.1104093044996261,0.0906086340546608,-3.631546496762894e-05,0.0693468376994133,0.0138760339468717,-2.365980253671296e-05,0.0,2.891421318054199,-0.3366319656372071,0.0,13.5,0.0,3.0133724212646484,-0.2558080673217773,0.0,20.0,0.0,3.0766725540161133,-0.3130285263061523,0.0,22.0,,,,,,,,,,,,,,,
0.0,0.084257110953331,3.005879163742065,-0.44997985436675647,0.1104093044996261,0.0906086340546608,-3.631546496762894e-05,0.0693468376994133,0.0138760339468717,-2.365980253671296e-05,0.0,3.145337104797364,-0.3502218246459961,0.0,17.5,0.0,3.019094467163086,-0.23041648864746112,0.0,19.75,0.0,3.085255622863769,-0.2958623886108398,0.0,22.25,0.0,3.1446218490600586,-0.3502218246459961,0.0,17.5,,,,,,,,,,
0.0,0.084257110953331,3.005879163742065,-0.44997985436675647,0.1104093044996261,0.0906086340546608,-3.631546496762894e-05,0.0693468376994133,0.0138760339468717,-2.365980253671296e-05,0.0,2.9851198196411133,-0.1703350067138672,0.0,19.0,0.0,3.052353858947754,-0.2182571411132814,0.0,20.0,0.0,3.1403303146362305,-0.3051607131958007,0.0,14.25,,,,,,,,,,,,,,,
0.0,0.084257110953331,3.005879163742065,-0.44997985436675647,0.1104093044996261,0.0906086340546608,-3.631546496762894e-05,0.0693468376994133,0.0138760339468717,-2.365980253671296e-05,0.0,2.85494327545166,-0.6002037048339842,0.0,14.0,0.0,3.0573606491088867,-0.2086011886596681,0.0,19.5,0.0,3.134608268737793,-0.2865640640258788,0.0,14.0,0.0,2.978682518005371,-0.13135356903076179,0.0,18.5,,,,,,,,,,
0.0,0.084257110953331,3.005879163742065,-0.44997985436675647,0.1104093044996261,0.0906086340546608,-3.631546496762894e-05,0.0693468376994133,0.0138760339468717,-2.365980253671296e-05,0.0,2.887129783630371,-0.5658714294433592,0.0,13.75,0.0,3.008008003234864,-0.21861476898193372,0.0,20.0,0.0,3.065943717956543,-0.2379266738891603,0.0,21.75,0.0,3.130674362182617,-0.2772657394409179,0.0,16.25,,,,,,,,,,
0.0,0.084257110953331,3.005879163742065,-0.44997985436675647,0.1104093044996261,0.0906086340546608,-3.631546496762894e-05,0.0693468376994133,0.0138760339468717,-2.365980253671296e-05,0.0,3.009796142578125,-0.33126754760742183,0.0,20.25,0.0,3.0559301376342773,-0.264748764038086,0.0,21.25,0.0,3.1342506408691406,-0.3276912689208985,0.0,15.25,,,,,,,,,,,,,,,
0.0,0.084257110953331,3.005879163742065,-0.44997985436675647,0.1104093044996261,0.0906086340546608,-3.631546496762894e-05,0.0693468376994133,0.0138760339468717,-2.365980253671296e-05,0.0,3.0677318572998047,-0.2719013214111327,0.0,21.5,0.0,3.143906593322754,-0.3155319213867187,0.0,16.25,,,,,,,,,,,,,,,,,,,,
0.0,0.0839606374502182,3.008023738861084,-0.4499800890418555,0.1101539656519889,0.093119129538536,-3.689935329020955e-05,0.0692622289061546,0.0157006476074457,-2.399885124759749e-05,0.0,3.1363964080810547,-0.3924219131469727,0.1917510479688644,14.5,0.0,2.849936485290528,-0.749692153930664,0.0,16.0,0.0,2.9969215393066406,-0.4074422836303711,0.0,21.0,0.0,3.0677318572998047,-0.2904979705810547,0.0,22.5,0.0,3.139615058898926,-0.3080217361450196,0.0,17.25,,,,,
0.0,0.0839606374502182,3.008023738861084,-0.4499800890418555,0.1101539656519889,0.093119129538536,-3.689935329020955e-05,0.0692622289061546,0.0157006476074457,-2.399885124759749e-05,0.0,2.8513669967651367,-0.7686464309692383,0.0,16.0,0.0,3.0062198638916016,-0.4482118606567383,0.0,21.25,,,,,,,,,,,,,,,,,,,,
0.0,0.0839606374502182,3.008023738861084,-0.4499800890418555,0.1101539656519889,0.093119129538536,-3.689935329020955e-05,0.0692622289061546,0.0157006476074457,-2.399885124759749e-05,0.0,2.85029411315918,-0.7582752227783204,0.0,16.25,0.0,2.9979944229125977,-0.4682390213012695,0.0,21.25,,,,,,,,,,,,,,,,,,,,
0.0,0.0839606374502182,3.008023738861084,-0.4499800890418555,0.1101539656519889,0.093119129538536,-3.689935329020955e-05,0.0692622289061546,0.0157006476074457,-2.399885124759749e-05,0.0,2.8520822525024414,-0.732883644104004,0.0,15.75,0.0,2.9979944229125977,-0.4896966934204101,0.0,20.75,,,,,,,,,,,,,,,,,,,,
0.0,0.0839606374502182,3.008023738861084,-0.4499800890418555,0.1101539656519889,0.093119129538536,-3.689935329020955e-05,0.0692622289061546,0.0157006476074457,-2.399885124759749e-05,0.0,2.8395652770996094,-0.8083431243896484,0.0,17.5,0.0,2.996206283569336,-0.5276052474975585,0.0,22.0,0.0,3.068089485168457,-0.42925758361816413,0.0,23.25,,,,,,,,,,,,,,,
0.0,0.0839606374502182,3.008023738861084,-0.4499800890418555,0.1101539656519889,0.093119129538536,-3.689935329020955e-05,0.0692622289061546,0.0157006476074457,-2.399885124759749e-05,0.0,3.003716468811035,-0.5744544982910156,0.0,20.0,0.0,3.1006336212158203,-0.4128067016601563,0.0,22.75,0.0,3.159642219543457,-0.3856269836425782,0.0,18.75,,,,,,,,,,,,,,,
0.0,0.0839606374502182,3.008023738861084,-0.4499800890418555,0.1101539656519889,0.093119129538536,-3.689935329020955e-05,0.0692622289061546,0.0157006476074457,-2.399885124759749e-05,0.0,2.8238296508789062,-0.8716432571411133,0.0,14.75,0.0,3.02731990814209,-0.48004074096679683,0.0,19.75,0.0,3.112435340881348,-0.4106609344482422,0.0,23.0,0.0,3.163933753967285,-0.4024354934692383,0.0,20.0,,,,,,,,,,
0.0,0.0839606374502182,3.008023738861084,-0.4499800890418555,0.1101539656519889,0.093119129538536,-3.689935329020955e-05,0.0692622289061546,0.0157006476074457,-2.399885124759749e-05,0.0,2.824544906616211,-0.8476821899414062,0.0,14.75,0.0,3.015875816345215,-0.5537120819091794,0.0,19.0,0.0,3.114938735961914,-0.46215934753417953,0.0,22.5,0.0,3.165006637573242,-0.4077999114990235,0.0,19.5,,,,,,,,,,
0.0,0.0839606374502182,3.008023738861084,-0.4499800890418555,0.1101539656519889,0.093119129538536,-3.689935329020955e-05,0.0692622289061546,0.0157006476074457,-2.399885124759749e-05,0.0,2.7952194213867188,-0.881656837463379,0.0,14.0,0.0,3.0219554901123047,-0.5236713409423829,0.0,17.0,0.0,3.129243850708008,-0.45643730163574203,0.0,21.25,0.0,3.17537784576416,-0.3959981918334961,0.0,18.75,,,,,,,,,,
0.0,0.0839606374502182,3.008023738861084,-0.4499800890418555,0.1101539656519889,0.093119129538536,-3.689935329020955e-05,0.0692622289061546,0.0157006476074457,-2.399885124759749e-05,0.0,2.798080444335937,-0.9120552062988282,0.0,13.0,0.0,3.006577491760254,-0.5547849655151367,0.0,17.25,0.0,3.11279296875,-0.4482118606567383,0.0,19.75,,,,,,,,,,,,,,,
0.0,0.0839606374502182,3.008023738861084,-0.4499800890418555,0.1101539656519889,0.093119129538536,-3.689935329020955e-05,0.0692622289061546,0.0157006476074457,-2.399885124759749e-05,0.0,2.814173698425293,-0.8305160522460936,0.0,13.75,0.0,2.9987096786499023,-0.5476324081420898,0.0,17.25,,,,,,,,,,,,,,,,,,,,
0.0,0.0839606374502182,3.008023738861084,-0.4499800890418555,0.1101539656519889,0.093119129538536,-3.689935329020955e-05,0.0692622289061546,0.0157006476074457,-2.399885124759749e-05,0.0,2.8302669525146484,-0.81013126373291,0.0,13.25,0.0,3.000497817993164,-0.5694477081298829,0.0,17.5,,,,,,,,,,,,,,,,,,,,
0.0,0.0839606374502182,3.008023738861084,-0.4499800890418555,0.1101539656519889,0.093119129538536,-3.689935329020955e-05,0.0692622289061546,0.0157006476074457,-2.399885124759749e-05,0.0,3.01516056060791,-0.4392711639404297,0.0,14.75,,,,,,,,,,,,,,,,,,,,,,,,,
0.0,0.0839606374502182,3.008023738861084,-0.4499800890418555,0.1101539656519889,0.093119129538536,-3.689935329020955e-05,0.0692622289061546,0.0157006476074457,-2.399885124759749e-05,0.0,2.9772520065307617,-0.4128067016601563,0.0,15.25,0.0,3.0884742736816406,-0.4049388885498047,0.0,15.75,,,,,,,,,,,,,,,,,,,,
0.0,0.0839606374502182,3.008023738861084,-0.4499800890418555,0.1101539656519889,0.093119129538536,-3.689935329020955e-05,0.0692622289061546,0.0157006476074457,-2.399885124759749e-05,0.0,2.968668937683105,-0.4017202377319336,0.0,14.75,,,,,,,,,,,,,,,,,,,,,,,,,
0.0,0.0839606374502182,3.008023738861084,-0.4499800890418555,0.1101539656519889,0.093119129538536,-3.689935329020955e-05,0.0692622289061546,0.0157006476074457,-2.399885124759749e-05,0.0,2.846360206604004,-0.7357446670532226,0.0,12.5,0.0,2.979755401611328,-0.519737434387207,0.0,17.0,0.0,3.074526786804199,-0.5165187835693359,0.0,17.0,0.0,3.1807422637939453,-0.5054323196411131,0.0,13.75,,,,,,,,,,
0.0,0.0839606374502182,3.008023738861084,-0.4499800890418555,0.1101539656519889,0.093119129538536,-3.689935329020955e-05,0.0692622289061546,0.0157006476074457,-2.399885124759749e-05,0.0,2.8481483459472656,-0.7335988998413085,0.0,14.25,0.0,2.960085868835449,-0.664219093322754,0.0,18.0,0.0,3.0777454376220703,-0.5293933868408204,0.0,18.0,0.0,3.185033798217773,-0.5254594802856445,0.0,15.25,,,,,,,,,,
0.0,0.0839606374502182,3.008023738861084,-0.4499800890418555,0.1101539656519889,0.093119129538536,-3.689935329020955e-05,0.0692622289061546,0.0157006476074457,-2.399885124759749e-05,0.0,3.0705928802490234,-0.5544273376464842,0.0,17.0,0.0,3.197550773620605,-0.5007831573486329,0.0,14.75,,,,,,,,,,,,,,,,,,,,
0.0,0.0839606374502182,3.008023738861084,-0.4499800890418555,0.1101539656519889,0.093119129538536,-3.689935329020955e-05,0.0692622289061546,0.0157006476074457,-2.399885124759749e-05,,,,,,,,,,,,,,,,,,,,,,,,,,,,,,
0.0,0.0839606374502182,3.008023738861084,-0.4499800890418555,0.1101539656519889,0.093119129538536,-3.689935329020955e-05,0.0692622289061546,0.0157006476074457,-2.399885124759749e-05,,,,,,,,,,,,,,,,,,,,,,,,,,,,,,
0.0,0.0839606374502182,3.008023738861084,-0.4499800890418555,0.1101539656519889,0.093119129538536,-3.689935329020955e-05,0.0692622289061546,0.0157006476074457,-2.399885124759749e-05,0.0,2.829551696777344,-0.8405296325683593,0.0,15.0,0.0,3.1821727752685547,-0.4371253967285157,0.0,14.5,,,,,,,,,,,,,,,,,,,,
0.0,0.0839606374502182,3.008023738861084,-0.4499800890418555,0.1101539656519889,0.093119129538536,-3.689935329020955e-05,0.0692622289061546,0.0157006476074457,-2.399885124759749e-05,0.0,2.8012990951538086,-0.9420959472656251,0.0,13.5,,,,,,,,,,,,,,,,,,,,,,,,,
0.0,0.0839606374502182,3.008023738861084,-0.4499800890418555,0.1101539656519889,0.093119129538536,-3.689935329020955e-05,0.0692622289061546,0.0157006476074457,-2.399885124759749e-05,0.0,2.798795700073242,-0.9689180374145508,0.0,12.75,,,,,,,,,,,,,,,,,,,,,,,,,
0.0,0.0839606374502182,3.008023738861084,-0.4499800890418555,0.1101539656519889,0.093119129538536,-3.689935329020955e-05,0.0692622289061546,0.0157006476074457,-2.399885124759749e-05,0.0,2.99227237701416,-0.5279628753662109,0.0,16.0,0.0,3.0759572982788086,-0.4618017196655273,0.0,16.75,0.0,3.1746625900268555,-0.5215255737304687,0.0,12.75,,,,,,,,,,,,,,,
0.0,0.0827085152268409,3.005723237991333,-0.4499803565006004,0.1077224388718605,0.0875397250056266,-3.765794826904312e-05,0.0671793594956398,0.0084703993052244,-2.445255267957691e-05,0.0,2.9075145721435547,-0.4024354934692383,-0.1917510479688644,12.75,0.0,2.993345260620117,-0.530108642578125,0.0,16.5,0.0,3.168940544128418,-0.5100814819335937,0.0,13.0,,,,,,,,,,,,,,,
0.0,0.0827085152268409,3.005723237991333,-0.4499803565006004,0.1077224388718605,0.0875397250056266,-3.765794826904312e-05,0.0671793594956398,0.0084703993052244,-2.445255267957691e-05,0.0,2.843499183654785,-0.7657854080200196,0.0,12.0,0.0,3.0688047409057617,-0.4592983245849609,0.0,17.0,0.0,3.171086311340332,-0.4986373901367187,0.0,13.0,,,,,,,,,,,,,,,
0.0,0.0827085152268409,3.005723237991333,-0.4499803565006004,0.1077224388718605,0.0875397250056266,-3.765794826904312e-05,0.0671793594956398,0.0084703993052244,-2.445255267957691e-05,0.0,2.846002578735352,-0.725731086730957,0.0,12.75,,,,,,,,,,,,,,,,,,,,,,,,,
0.0,0.0827085152268409,3.005723237991333,-0.4499803565006004,0.1077224388718605,0.0875397250056266,-3.765794826904312e-05,0.0671793594956398,0.0084703993052244,-2.445255267957691e-05,0.0,2.858519554138184,-0.6424037933349609,0.0,12.25,,,,,,,,,,,,,,,,,,,,,,,,,
0.0,0.0827085152268409,3.005723237991333,-0.4499803565006004,0.1077224388718605,0.0875397250056266,-3.765794826904312e-05,0.0671793594956398,0.0084703993052244,-2.445255267957691e-05,,,,,,,,,,,,,,,,,,,,,,,,,,,,,,
0.0,0.0827085152268409,3.005723237991333,-0.4499803565006004,0.1077224388718605,0.0875397250056266,-3.765794826904312e-05,0.0671793594956398,0.0084703993052244,-2.445255267957691e-05,0.0,2.986907958984375,-0.3276912689208985,0.0,16.0,,,,,,,,,,,,,,,,,,,,,,,,,
0.0,0.0827085152268409,3.005723237991333,-0.4499803565006004,0.1077224388718605,0.0875397250056266,-3.765794826904312e-05,0.0671793594956398,0.0084703993052244,-2.445255267957691e-05,0.0,3.0040740966796875,-0.3956405639648438,0.0,16.25,0.0,3.11136245727539,-0.3695337295532227,0.0,19.0,0.0,3.17072868347168,-0.3681032180786133,0.0,16.25,,,,,,,,,,,,,,,
0.0,0.0827085152268409,3.005723237991333,-0.4499803565006004,0.1077224388718605,0.0875397250056266,-3.765794826904312e-05,0.0671793594956398,0.0084703993052244,-2.445255267957691e-05,0.0,3.0187368392944336,-0.45715255737304683,0.0,16.75,0.0,3.106355667114258,-0.3580896377563477,0.0,19.75,0.0,3.161787986755371,-0.3480760574340821,0.0,16.5,,,,,,,,,,,,,,,
0.0,0.0827085152268409,3.005723237991333,-0.4499803565006004,0.1077224388718605,0.0875397250056266,-3.765794826904312e-05,0.0671793594956398,0.0084703993052244,-2.445255267957691e-05,0.0,3.025531768798828,-0.4224626541137696,0.0,15.75,0.0,3.1621456146240234,-0.35200996398925777,0.0,15.75,0.0,3.1102895736694336,-0.3430692672729492,0.0,19.0,,,,,,,,,,,,,,,
0.0,0.0827085152268409,3.005723237991333,-0.4499803565006004,0.1077224388718605,0.0875397250056266,-3.765794826904312e-05,0.0671793594956398,0.0084703993052244,-2.445255267957691e-05,0.0,3.012657165527344,-0.4117338180541992,0.0,15.0,0.0,3.109216690063477,-0.3745405197143555,0.0,17.5,,,,,,,,,,,,,,,,,,,,
0.0,0.0827085152268409,3.005723237991333,-0.4499803565006004,0.1077224388718605,0.0875397250056266,-3.765794826904312e-05,0.0671793594956398,0.0084703993052244,-2.445255267957691e-05,0.0,3.017663955688477,-0.40565414428710944,0.0,14.5,0.0,3.1142234802246094,-0.4106609344482422,0.0,17.5,,,,,,,,,,,,,,,,,,,,
0.0,0.0827085152268409,3.005723237991333,-0.4499803565006004,0.1077224388718605,0.0875397250056266,-3.765794826904312e-05,0.0671793594956398,0.0084703993052244,-2.445255267957691e-05,0.0,2.994060516357422,-0.6323902130126954,0.0,15.75,0.0,3.08990478515625,-0.541552734375,0.0,17.25,,,,,,,,,,,,,,,,,,,,
0.0,0.0827085152268409,3.005723237991333,-0.4499803565006004,0.1077224388718605,0.0875397250056266,-3.765794826904312e-05,0.0671793594956398,0.0084703993052244,-2.445255267957691e-05,0.0,2.849936485290528,-0.7471887588500976,0.0,12.5,0.0,3.0591487884521484,-0.5798189163208006,0.0,16.75,,,,,,,,,,,,,,,,,,,,
0.0,0.0827085152268409,3.005723237991333,-0.4499803565006004,0.1077224388718605,0.0875397250056266,-3.765794826904312e-05,0.0671793594956398,0.0084703993052244,-2.445255267957691e-05,,,,,,,,,,,,,,,,,,,,,,,,,,,,,,
0.0,0.0827085152268409,3.005723237991333,-0.4499803565006004,0.1077224388718605,0.0875397250056266,-3.765794826904312e-05,0.0671793594956398,0.0084703993052244,-2.445255267957691e-05,0.0,3.006577491760254,-0.5236713409423829,0.0,16.75,0.0,3.0766725540161133,-0.42067451477050777,0.0,18.25,0.0,3.1539201736450195,-0.30837936401367183,0.0,13.75,,,,,,,,,,,,,,,
0.0,0.0827085152268409,3.005723237991333,-0.4499803565006004,0.1077224388718605,0.0875397250056266,-3.765794826904312e-05,0.0671793594956398,0.0084703993052244,-2.445255267957691e-05,0.0,3.003358840942383,-0.5537120819091794,0.0,17.25,0.0,3.0759572982788086,-0.4267541885375977,0.0,18.75,0.0,3.149986267089844,-0.3119556427001952,0.0,13.75,,,,,,,,,,,,,,,
0.0,0.0827085152268409,3.005723237991333,-0.4499803565006004,0.1077224388718605,0.0875397250056266,-3.765794826904312e-05,0.0671793594956398,0.0084703993052244,-2.445255267957691e-05,0.0,3.083467483520508,-0.4550067901611327,0.0,19.75,0.0,3.1478404998779297,-0.4060117721557617,0.0,14.75,,,,,,,,,,,,,,,,,,,,
0.0,0.0827085152268409,3.005723237991333,-0.4499803565006004,0.1077224388718605,0.0875397250056266,-3.765794826904312e-05,0.0671793594956398,0.0084703993052244,-2.445255267957691e-05,0.0,3.157496452331543,-0.326260757446289,0.0,15.75,,,,,,,,,,,,,,,,,,,,,,,,,
0.0,0.0827085152268409,3.005723237991333,-0.4499803565006004,0.1077224388718605,0.0875397250056266,-3.765794826904312e-05,0.0671793594956398,0.0084703993052244,-2.445255267957691e-05,0.0,3.104567527770996,-0.2715436935424804,0.0,20.25,0.0,3.154277801513672,-0.2747623443603515,0.0,16.5,,,,,,,,,,,,,,,,,,,,
0.0,0.0827085152268409,3.005723237991333,-0.4499803565006004,0.1077224388718605,0.0875397250056266,-3.765794826904312e-05,0.0671793594956398,0.0084703993052244,-2.445255267957691e-05,0.0,3.153204917907715,-0.2651063919067382,0.0,16.5,,,,,,,,,,,,,,,,,,,,,,,,,
0.0,0.0827085152268409,3.005723237991333,-0.4499803565006004,0.1077224388718605,0.0875397250056266,-3.765794826904312e-05,0.0671793594956398,0.0084703993052244,-2.445255267957691e-05,0.0,3.109931945800781,-0.2289859771728516,0.0,20.5,0.0,3.17072868347168,-0.2940742492675781,0.0,17.25,,,,,,,,,,,,,,,,,,,,
0.0,0.0827085152268409,3.005723237991333,-0.4499803565006004,0.1077224388718605,0.0875397250056266,-3.765794826904312e-05,0.0671793594956398,0.0084703993052244,-2.445255267957691e-05,0.0,3.020524978637696,-0.3613082885742188,0.0,17.0,0.0,3.0945539474487305,-0.2236215591430665,0.0,19.5,0.0,3.17537784576416,-0.2640335083007812,0.0,16.5,,,,,,,,,,,,,,,
0.0,0.0827085152268409,3.005723237991333,-0.4499803565006004,0.1077224388718605,0.0875397250056266,-3.765794826904312e-05,0.0671793594956398,0.0084703993052244,-2.445255267957691e-05,0.0,3.023386001586914,-0.3570167541503906,0.0,17.25,0.0,3.098130226135254,-0.2679674148559569,0.0,19.75,0.0,3.174304962158203,-0.326260757446289,0.0,16.5,,,,,,,,,,,,,,,
0.0,0.0827085152268409,3.005723237991333,-0.4499803565006004,0.1077224388718605,0.0875397250056266,-3.765794826904312e-05,0.0671793594956398,0.0084703993052244,-2.445255267957691e-05,,,,,,,,,,,,,,,,,,,,,,,,,,,,,,
0.0,0.0827085152268409,3.005723237991333,-0.4499803565006004,0.1077224388718605,0.0875397250056266,-3.765794826904312e-05,0.0671793594956398,0.0084703993052244,-2.445255267957691e-05,0.0,3.0301809310913086,-0.42603893280029304,0.0,16.5,0.0,3.1174421310424805,-0.2915708541870117,0.0,20.0,,,,,,,,,,,,,,,,,,,,
0.0,0.0827085152268409,3.005723237991333,-0.4499803565006004,0.1077224388718605,0.0875397250056266,-3.765794826904312e-05,0.0671793594956398,0.0084703993052244,-2.445255267957691e-05,0.0,3.013730049133301,-0.45143051147460933,0.0,16.0,0.0,3.1017065048217773,-0.3745405197143555,0.0,18.0,0.0,3.1871795654296875,-0.3284065246582031,0.0,15.5,,,,,,,,,,,,,,,
0.0,0.0827085152268409,3.005723237991333,-0.4499803565006004,0.1077224388718605,0.0875397250056266,-3.765794826904312e-05,0.0671793594956398,0.0084703993052244,-2.445255267957691e-05,0.0,2.979397773742676,-0.4077999114990235,0.0,16.5,0.0,3.0813217163085938,-0.3963558197021485,0.0,16.0,0.0,3.1996965408325195,-0.21325035095214862,0.0,14.5,,,,,,,,,,,,,,,
0.0,0.0827085152268409,3.005723237991333,-0.4499803565006004,0.1077224388718605,0.0875397250056266,-3.765794826904312e-05,0.0671793594956398,0.0084703993052244,-2.445255267957691e-05,0.0,3.078818321228028,-0.206455421447754,0.0,14.75,0.0,3.207564353942871,-0.264748764038086,0.0,13.25,,,,,,,,,,,,,,,,,,,,
0.0,0.0827085152268409,3.005723237991333,-0.4499803565006004,0.1077224388718605,0.0875397250056266,-3.765794826904312e-05,0.0671793594956398,0.0084703993052244,-2.445255267957691e-05,0.0,3.0870437622070312,-0.2125350952148439,0.0,14.5,0.0,3.219723701477051,-0.2722589492797851,0.0,13.75,,,,,,,,,,,,,,,,,,,,
0.0,0.0827085152268409,3.005723237991333,-0.4499803565006004,0.1077224388718605,0.0875397250056266,-3.765794826904312e-05,0.0671793594956398,0.0084703993052244,-2.445255267957691e-05,0.0,3.0820369720458984,-0.2729742050170898,0.0,16.5,0.0,3.205418586730957,-0.2879945755004882,0.0,15.0,,,,,,,,,,,,,,,,,,,,
0.0,0.0827085152268409,3.005723237991333,-0.4499803565006004,0.1077224388718605,0.0875397250056266,-3.765794826904312e-05,0.0671793594956398,0.0084703993052244,-2.445255267957691e-05,0.0,3.1893253326416016,-0.2357809066772462,0.0,14.25,,,,,,,,,,,,,,,,,,,,,,,,,
0.0,0.0827085152268409,3.005723237991333,-0.4499803565006004,0.1077224388718605,0.0875397250056266,-3.765794826904312e-05,0.0671793594956398,0.0084703993052244,-2.445255267957691e-05,0.0,3.173232078552246,-0.2819149017333985,0.0,14.0,,,,,,,,,,,,,,,,,,,,,,,,,
0.0,0.0827085152268409,3.005723237991333,-0.4499803565006004,0.1077224388718605,0.0875397250056266,-3.765794826904312e-05,0.0671793594956398,0.0084703993052244,-2.445255267957691e-05,0.0,3.1757354736328125,-0.2951471328735351,0.0,13.5,,,,,,,,,,,,,,,,,,,,,,,,,
0.0,0.0827085152268409,3.005723237991333,-0.4499803565006004,0.1077224388718605,0.0875397250056266,-3.765794826904312e-05,0.0671793594956398,0.0084703993052244,-2.445255267957691e-05,0.0,3.084540367126465,-0.326260757446289,0.0,19.25,0.0,3.165006637573242,-0.2869216918945312,0.0,15.75,,,,,,,,,,,,,,,,,,,,
0.0,0.0827085152268409,3.005723237991333,-0.4499803565006004,0.1077224388718605,0.0875397250056266,-3.765794826904312e-05,0.0671793594956398,0.0084703993052244,-2.445255267957691e-05,0.0,3.0902624130249023,-0.3076641082763672,0.0,18.25,0.0,3.174304962158203,-0.264748764038086,0.0,15.0,,,,,,,,,,,,,,,,,,,,
0.0,0.0827085152268409,3.005723237991333,-0.4499803565006004,0.1077224388718605,0.0875397250056266,-3.765794826904312e-05,0.0671793594956398,0.0084703993052244,-2.445255267957691e-05,0.0,3.1725168228149414,-0.3001539230346679,0.0,15.75,,,,,,,,,,,,,,,,,,,,,,,,,
0.0,0.0806275010108947,3.002768039703369,-0.4499806547912158,0.1034191027283668,0.077326662838459,-3.953270788770169e-05,0.0633614957332611,-0.0063931476324796,-2.564868555055e-05,0.0,2.938270568847656,-0.39206428527832027,-0.1917510479688644,15.5,0.0,2.9904842376708984,-0.40636940002441413,-0.1917510479688644,12.5,0.0,3.166794776916504,-0.357374382019043,0.0,15.75,,,,,,,,,,,,,,,
0.0,0.0806275010108947,3.002768039703369,-0.4499806547912158,0.1034191027283668,0.077326662838459,-3.953270788770169e-05,0.0633614957332611,-0.0063931476324796,-2.564868555055e-05,0.0,3.17072868347168,-0.3566591262817383,0.0,15.0,0.0,3.0094385147094727,-0.2597419738769531,0.0,17.25,0.0,3.085255622863769,-0.253304672241211,0.0,19.0,,,,,,,,,,,,,,,
0.0,0.0806275010108947,3.002768039703369,-0.4499806547912158,0.1034191027283668,0.077326662838459,-3.953270788770169e-05,0.0633614957332611,-0.0063931476324796,-2.564868555055e-05,0.0,3.0966997146606445,-0.2508012771606444,0.0,20.5,0.0,3.163933753967285,-0.3191082000732422,0.0,16.75,,,,,,,,,,,,,,,,,,,,
0.0,0.0806275010108947,3.002768039703369,-0.4499806547912158,0.1034191027283668,0.077326662838459,-3.953270788770169e-05,0.0633614957332611,-0.0063931476324796,-2.564868555055e-05,0.0,3.0927658081054688,-0.1817790985107422,0.0,20.0,0.0,3.1560659408569336,-0.269040298461914,0.0,15.75,,,,,,,,,,,,,,,,,,,,
0.0,0.0806275010108947,3.002768039703369,-0.4499806547912158,0.1034191027283668,0.077326662838459,-3.953270788770169e-05,0.0633614957332611,-0.0063931476324796,-2.564868555055e-05,,,,,,,,,,,,,,,,,,,,,,,,,,,,,,
0.0,0.0806275010108947,3.002768039703369,-0.4499806547912158,0.1034191027283668,0.077326662838459,-3.953270788770169e-05,0.0633614957332611,-0.0063931476324796,-2.564868555055e-05,,,,,,,,,,,,,,,,,,,,,,,,,,,,,,
0.0,0.0806275010108947,3.002768039703369,-0.4499806547912158,0.1034191027283668,0.077326662838459,-3.953270788770169e-05,0.0633614957332611,-0.0063931476324796,-2.564868555055e-05,0.0,3.0241012573242188,-0.3706066131591797,0.0,18.5,,,,,,,,,,,,,,,,,,,,,,,,,
0.0,0.0806275010108947,3.002768039703369,-0.4499806547912158,0.1034191027283668,0.077326662838459,-3.953270788770169e-05,0.0633614957332611,-0.0063931476324796,-2.564868555055e-05,0.0,3.033757209777832,-0.4356948852539063,0.0,19.0,,,,,,,,,,,,,,,,,,,,,,,,,
0.0,0.0806275010108947,3.002768039703369,-0.4499806547912158,0.1034191027283668,0.077326662838459,-3.953270788770169e-05,0.0633614957332611,-0.0063931476324796,-2.564868555055e-05,0.0,3.026604652404785,-0.452145767211914,0.0,19.25,,,,,,,,,,,,,,,,,,,,,,,,,
0.0,0.0806275010108947,3.002768039703369,-0.4499806547912158,0.1034191027283668,0.077326662838459,-3.953270788770169e-05,0.0633614957332611,-0.0063931476324796,-2.564868555055e-05,0.0,3.026962280273437,-0.3580896377563477,0.0,17.5,0.0,3.093123435974121,-0.2801267623901367,0.0,20.0,,,,,,,,,,,,,,,,,,,,
0.0,0.0806275010108947,3.002768039703369,-0.4499806547912158,0.1034191027283668,0.077326662838459,-3.953270788770169e-05,0.0633614957332611,-0.0063931476324796,-2.564868555055e-05,0.0,3.025174140930176,-0.48504753112792953,0.0,18.0,0.0,3.09598445892334,-0.3466455459594726,0.0,20.25,0.0,3.163576126098633,-0.3137437820434571,0.0,16.75,,,,,,,,,,,,,,,
0.0,0.0806275010108947,3.002768039703369,-0.4499806547912158,0.1034191027283668,0.077326662838459,-3.953270788770169e-05,0.0633614957332611,-0.0063931476324796,-2.564868555055e-05,0.0,2.859950065612793,-0.7822362899780272,0.0,12.5,0.0,3.022313117980957,-0.392779541015625,0.0,18.5,0.0,3.0906200408935547,-0.3241149902343749,0.0,20.5,0.0,3.1599998474121094,-0.3173200607299804,0.0,16.75,,,,,,,,,,
0.0,0.0806275010108947,3.002768039703369,-0.4499806547912158,0.1034191027283668,0.077326662838459,-3.953270788770169e-05,0.0633614957332611,-0.0063931476324796,-2.564868555055e-05,0.0,2.8760433197021484,-0.8026210784912108,0.0,12.75,0.0,3.028392791748047,-0.4993526458740234,0.0,19.5,0.0,3.084897994995117,-0.4474966049194336,0.0,21.5,0.0,3.15713882446289,-0.37704391479492194,0.0,16.75,,,,,,,,,,
0.0,0.0806275010108947,3.002768039703369,-0.4499806547912158,0.1034191027283668,0.077326662838459,-3.953270788770169e-05,0.0633614957332611,-0.0063931476324796,-2.564868555055e-05,0.0,2.8814077377319336,-0.83301944732666,0.0,12.75,0.0,3.03804874420166,-0.4789678573608398,0.0,20.5,0.0,3.08382511138916,-0.4231779098510742,0.0,22.5,,,,,,,,,,,,,,,
0.0,0.0806275010108947,3.002768039703369,-0.4499806547912158,0.1034191027283668,0.077326662838459,-3.953270788770169e-05,0.0633614957332611,-0.0063931476324796,-2.564868555055e-05,0.0,2.992987632751465,-0.5533544540405273,0.0,19.0,0.0,3.063082695007324,-0.4424898147583008,0.0,19.25,0.0,3.155708312988281,-0.3366319656372071,0.0,14.75,,,,,,,,,,,,,,,
0.0,0.0806275010108947,3.002768039703369,-0.4499806547912158,0.1034191027283668,0.077326662838459,-3.953270788770169e-05,0.0633614957332611,-0.0063931476324796,-2.564868555055e-05,0.0,3.008365631103516,-0.45751018524169906,0.0,17.25,0.0,3.0781030654907227,-0.3280488967895507,0.0,18.5,,,,,,,,,,,,,,,,,,,,
0.0,0.0806275010108947,3.002768039703369,-0.4499806547912158,0.1034191027283668,0.077326662838459,-3.953270788770169e-05,0.0633614957332611,-0.0063931476324796,-2.564868555055e-05,0.0,2.9947757720947266,-0.6048528671264648,0.0,16.25,0.0,3.0770301818847656,-0.4929153442382812,0.0,17.25,0.0,3.1599998474121094,-0.42854232788085944,0.0,12.75,,,,,,,,,,,,,,,
0.0,0.0806275010108947,3.002768039703369,-0.4499806547912158,0.1034191027283668,0.077326662838459,-3.953270788770169e-05,0.0633614957332611,-0.0063931476324796,-2.564868555055e-05,0.0,3.0215978622436523,-0.531181526184082,0.0,17.75,0.0,3.0670166015625,-0.4421321868896485,0.0,19.0,0.0,3.142833709716797,-0.4131643295288086,0.0,13.25,,,,,,,,,,,,,,,
0.0,0.0806275010108947,3.002768039703369,-0.4499806547912158,0.1034191027283668,0.077326662838459,-3.953270788770169e-05,0.0633614957332611,-0.0063931476324796,-2.564868555055e-05,0.0,3.016948699951172,-0.48290176391601547,0.0,17.0,0.0,3.06558609008789,-0.4310457229614258,0.0,17.75,0.0,3.157854080200196,-0.47682209014892574,0.0,12.5,,,,,,,,,,,,,,,
0.0,0.0806275010108947,3.002768039703369,-0.4499806547912158,0.1034191027283668,0.077326662838459,-3.953270788770169e-05,0.0633614957332611,-0.0063931476324796,-2.564868555055e-05,0.0,3.027677536010742,-0.4174558639526367,0.0,17.75,0.0,3.070950508117676,-0.4267541885375977,0.0,19.0,0.0,3.158211708068848,-0.461444091796875,0.0,13.75,,,,,,,,,,,,,,,
0.0,0.0806275010108947,3.002768039703369,-0.4499806547912158,0.1034191027283668,0.077326662838459,-3.953270788770169e-05,0.0633614957332611,-0.0063931476324796,-2.564868555055e-05,0.0,3.017306327819824,-0.38133544921875,0.0,17.5,0.0,3.0591487884521484,-0.3852693557739258,0.0,17.75,0.0,3.157496452331543,-0.41459484100341804,0.0,12.5,,,,,,,,,,,,,,,
0.0,0.0806275010108947,3.002768039703369,-0.4499806547912158,0.1034191027283668,0.077326662838459,-3.953270788770169e-05,0.0633614957332611,-0.0063931476324796,-2.564868555055e-05,0.0,3.030538558959961,-0.4389135360717774,0.0,16.75,0.0,3.086686134338379,-0.4253236770629883,0.0,18.75,,,,,,,,,,,,,,,,,,,,
0.0,0.0806275010108947,3.002768039703369,-0.4499806547912158,0.1034191027283668,0.077326662838459,-3.953270788770169e-05,0.0633614957332611,-0.0063931476324796,-2.564868555055e-05,0.0,3.029823303222656,-0.2933589935302735,0.0,17.75,,,,,,,,,,,,,,,,,,,,,,,,,
0.0,0.0806275010108947,3.002768039703369,-0.4499806547912158,0.1034191027283668,0.077326662838459,-3.953270788770169e-05,0.0633614957332611,-0.0063931476324796,-2.564868555055e-05,0.0,3.193974494934082,-0.3530828475952149,0.0,13.5,,,,,,,,,,,,,,,,,,,,,,,,,
0.0,0.0806275010108947,3.002768039703369,-0.4499806547912158,0.1034191027283668,0.077326662838459,-3.953270788770169e-05,0.0633614957332611,-0.0063931476324796,-2.564868555055e-05,0.0,2.9976367950439453,-0.46788139343261703,0.0,14.25,0.0,3.1020641326904297,-0.5043594360351562,0.0,15.25,0.0,3.204345703125,-0.47717971801757797,0.0,13.5,,,,,,,,,,,,,,,
0.0,0.0806275010108947,3.002768039703369,-0.4499806547912158,0.1034191027283668,0.077326662838459,-3.953270788770169e-05,0.0633614957332611,-0.0063931476324796,-2.564868555055e-05,0.0,3.109931945800781,-0.5626527786254881,0.0,14.5,0.0,2.9897689819335938,-0.3838388442993163,0.0,13.5,0.0,3.217935562133789,-0.4846899032592773,0.0,13.5,,,,,,,,,,,,,,,
0.0,0.0806275010108947,3.002768039703369,-0.4499806547912158,0.1034191027283668,0.077326662838459,-3.953270788770169e-05,0.0633614957332611,-0.0063931476324796,-2.564868555055e-05,0.0,3.109931945800781,-0.4278270721435547,0.0,14.75,0.0,3.216147422790528,-0.4553644180297851,0.0,13.25,0.0,3.000497817993164,-0.3466455459594726,0.0,13.5,,,,,,,,,,,,,,,
0.0,0.0806275010108947,3.002768039703369,-0.4499806547912158,0.1034191027283668,0.077326662838459,-3.953270788770169e-05,0.0633614957332611,-0.0063931476324796,-2.564868555055e-05,0.0,2.9987096786499023,-0.4428474426269532,0.0,13.25,0.0,3.122091293334961,-0.5251018524169919,0.0,15.0,0.0,3.2236576080322266,-0.41244907379150386,0.0,14.25,,,,,,,,,,,,,,,
0.0,0.0806275010108947,3.002768039703369,-0.4499806547912158,0.1034191027283668,0.077326662838459,-3.953270788770169e-05,0.0633614957332611,-0.0063931476324796,-2.564868555055e-05,0.0,3.000140190124512,-0.3963558197021485,0.0,12.75,0.0,3.1278133392333984,-0.48862380981445297,0.0,15.0,0.0,3.2254457473754883,-0.40565414428710944,0.0,14.25,,,,,,,,,,,,,,,
0.0,0.0806275010108947,3.002768039703369,-0.4499806547912158,0.1034191027283668,0.077326662838459,-3.953270788770169e-05,0.0633614957332611,-0.0063931476324796,-2.564868555055e-05,0.0,3.131031990051269,-0.4947034835815429,0.0,14.5,0.0,3.2140016555786133,-0.4002897262573242,0.0,13.75,,,,,,,,,,,,,,,,,,,,
0.0,0.0806275010108947,3.002768039703369,-0.4499806547912158,0.1034191027283668,0.077326662838459,-3.953270788770169e-05,0.0633614957332611,-0.0063931476324796,-2.564868555055e-05,0.0,3.024458885192871,-0.4789678573608398,0.0,12.75,0.0,3.1238794326782227,-0.43533725738525386,0.0,15.25,0.0,3.2047033309936523,-0.3566591262817383,0.0,13.75,,,,,,,,,,,,,,,
0.0,0.0806275010108947,3.002768039703369,-0.4499806547912158,0.1034191027283668,0.077326662838459,-3.953270788770169e-05,0.0633614957332611,-0.0063931476324796,-2.564868555055e-05,0.0,3.038763999938965,-0.4528610229492187,0.0,14.25,0.0,3.1070709228515625,-0.42603893280029304,0.0,16.75,0.0,3.176450729370117,-0.3530828475952149,0.0,13.75,,,,,,,,,,,,,,,
0.0,0.0806275010108947,3.002768039703369,-0.4499806547912158,0.1034191027283668,0.077326662838459,-3.953270788770169e-05,0.0633614957332611,-0.0063931476324796,-2.564868555055e-05,0.0,3.018021583557129,-0.40100498199462886,0.0,12.25,0.0,3.1195878982543945,-0.2769081115722656,0.0,15.0,,,,,,,,,,,,,,,,,,,,
0.0,0.0806275010108947,3.002768039703369,-0.4499806547912158,0.1034191027283668,0.077326662838459,-3.953270788770169e-05,0.0633614957332611,-0.0063931476324796,-2.564868555055e-05,0.0,3.119230270385742,-0.2525894165039062,0.0,14.75,0.0,3.198981285095215,-0.2050249099731446,0.0,13.5,,,,,,,,,,,,,,,,,,,,
0.0,0.0806275010108947,3.002768039703369,-0.4499806547912158,0.1034191027283668,0.077326662838459,-3.953270788770169e-05,0.0633614957332611,-0.0063931476324796,-2.564868555055e-05,0.0,3.2215118408203125,-0.10846538543701181,0.0,12.5,,,,,,,,,,,,,,,,,,,,,,,,,
0.0,0.0806275010108947,3.002768039703369,-0.4499806547912158,0.1034191027283668,0.077326662838459,-3.953270788770169e-05,0.0633614957332611,-0.0063931476324796,-2.564868555055e-05,0.0,3.0988454818725586,-0.04945678710937501,0.0,12.5,,,,,,,,,,,,,,,,,,,,,,,,,
0.0,0.0806275010108947,3.002768039703369,-0.4499806547912158,0.1034191027283668,0.077326662838459,-3.953270788770169e-05,0.0633614957332611,-0.0063931476324796,-2.564868555055e-05,0.0,3.09598445892334,-0.024422836303711004,0.0,12.25,,,,,,,,,,,,,,,,,,,,,,,,,
0.0,0.0806275010108947,3.002768039703369,-0.4499806547912158,0.1034191027283668,0.077326662838459,-3.953270788770169e-05,0.0633614957332611,-0.0063931476324796,-2.564868555055e-05,0.0,2.9768943786621094,-0.5018560409545898,0.0,14.5,0.0,3.0781030654907227,-0.4446355819702149,0.0,13.75,0.0,3.204345703125,-0.1706926345825196,0.0,12.0,,,,,,,,,,,,,,,
0.0,0.0806275010108947,3.002768039703369,-0.4499806547912158,0.1034191027283668,0.077326662838459,-3.953270788770169e-05,0.0633614957332611,-0.0063931476324796,-2.564868555055e-05,0.0,2.968668937683105,-0.48182888031005844,0.0,13.25,0.0,3.093481063842773,-0.3301946640014648,0.0,12.5,0.0,3.2175779342651367,-0.1524536132812501,0.0,12.25,,,,,,,,,,,,,,,
0.0,0.0806275010108947,3.002768039703369,-0.4499806547912158,0.1034191027283668,0.077326662838459,-3.953270788770169e-05,0.0633614957332611,-0.0063931476324796,-2.564868555055e-05,0.0,2.9665231704711914,-0.46001358032226547,0.0,13.75,0.0,3.0437707901000977,-0.424966049194336,0.0,12.75,,,,,,,,,,,,,,,,,,,,
0.0,0.0806275010108947,3.002768039703369,-0.4499806547912158,0.1034191027283668,0.077326662838459,-3.953270788770169e-05,0.0633614957332611,-0.0063931476324796,-2.564868555055e-05,0.0,2.9987096786499023,-0.4106609344482422,0.0,15.0,0.0,3.0673742294311523,-0.3702489852905274,0.0,15.5,,,,,,,,,,,,,,,,,,,,
0.0,0.0806275010108947,3.002768039703369,-0.4499806547912158,0.1034191027283668,0.077326662838459,-3.953270788770169e-05,0.0633614957332611,-0.0063931476324796,-2.564868555055e-05,0.0,3.018021583557129,-0.4256813049316407,0.0,16.0,0.0,3.0802488327026367,-0.3659574508666992,0.0,17.75,0.0,3.153204917907715,-0.2339927673339845,0.0,13.5,,,,,,,,,,,,,,,
0.0,0.0861344709992408,3.004462480545044,-0.4499809221244504,0.1112269461154937,0.0795514434576034,-3.989852120866999e-05,0.0687230601906776,-0.0045647015795111,-2.5855952117126435e-05,0.0,3.090977668762207,-0.09129924774169931,0.1917510479688644,12.25,0.0,3.03339958190918,-0.42067451477050777,0.0,17.25,0.0,3.114938735961914,-0.379189682006836,0.0,20.5,0.0,3.167867660522461,-0.3133861541748047,0.0,18.0,,,,,,,,,,
0.0,0.092823214828968,3.0058300495147705,-0.4499812159658177,0.1207074150443077,0.0815366134047508,-4.016880484414287e-05,0.0752376019954681,-0.0027632673736661,-2.599826439109165e-05,0.0,3.062725067138672,-0.01941604614257819,0.1917510479688644,13.75,0.0,3.0384063720703125,-0.4303304672241211,0.0,17.25,0.0,3.1102895736694336,-0.3731100082397461,0.0,20.5,0.0,3.1614303588867188,-0.3112403869628906,0.0,17.5,,,,,,,,,,
0.0,0.092823214828968,3.0058300495147705,-0.4499812159658177,0.1207074150443077,0.0815366134047508,-4.016880484414287e-05,0.0752376019954681,-0.0027632673736661,-2.599826439109165e-05,0.0,3.031611442565918,-0.47360343933105453,0.0,17.5,0.0,3.0988454818725586,-0.39170665740966804,0.0,20.0,0.0,3.16464900970459,-0.3169624328613281,0.0,16.5,,,,,,,,,,,,,,,
0.0,0.092823214828968,3.0058300495147705,-0.4499812159658177,0.1207074150443077,0.0815366134047508,-4.016880484414287e-05,0.0752376019954681,-0.0027632673736661,-2.599826439109165e-05,0.0,2.895712852478028,-0.6320325851440429,0.0,12.25,0.0,3.0094385147094727,-0.5633680343627929,0.0,18.5,0.0,3.08990478515625,-0.4650203704833984,0.0,20.25,0.0,3.1621456146240234,-0.3698913574218749,0.0,16.75,,,,,,,,,,
0.0,0.092823214828968,3.0058300495147705,-0.4499812159658177,0.1207074150443077,0.0815366134047508,-4.016880484414287e-05,0.0752376019954681,-0.0027632673736661,-2.599826439109165e-05,0.0,3.018021583557129,-0.44105930328369136,0.0,18.25,0.0,3.091692924499512,-0.42711181640625,0.0,20.25,0.0,3.1567811965942383,-0.3487913131713867,0.0,16.5,,,,,,,,,,,,,,,
0.0,0.092823214828968,3.0058300495147705,-0.4499812159658177,0.1207074150443077,0.0815366134047508,-4.016880484414287e-05,0.0752376019954681,-0.0027632673736661,-2.599826439109165e-05,0.0,2.907872200012207,-0.538334083557129,0.0,13.0,0.0,3.020524978637696,-0.5283205032348631,0.0,19.5,0.0,3.092050552368164,-0.4496423721313477,0.0,21.75,,,,,,,,,,,,,,,
0.0,0.092823214828968,3.0058300495147705,-0.4499812159658177,0.1207074150443077,0.0815366134047508,-4.016880484414287e-05,0.0752376019954681,-0.0027632673736661,-2.599826439109165e-05,0.0,2.905726432800293,-0.4660932540893554,0.0,14.0,0.0,3.005504608154297,-0.45178813934326156,0.0,20.0,0.0,3.087759017944336,-0.3888456344604492,0.0,21.0,,,,,,,,,,,,,,,
0.0,0.092823214828968,3.0058300495147705,-0.4499812159658177,0.1207074150443077,0.0815366134047508,-4.016880484414287e-05,0.0752376019954681,-0.0027632673736661,-2.599826439109165e-05,0.0,2.911090850830078,-0.4664508819580077,0.0,14.25,0.0,3.0094385147094727,-0.3852693557739258,0.0,21.0,0.0,3.075242042541504,-0.36345405578613277,0.0,22.0,,,,,,,,,,,,,,,
0.0,0.092823214828968,3.0058300495147705,-0.4499812159658177,0.1207074150443077,0.0815366134047508,-4.016880484414287e-05,0.0752376019954681,-0.0027632673736661,-2.599826439109165e-05,0.0,2.9153823852539062,-0.44570846557617194,0.0,15.5,0.0,2.9915571212768555,-0.42067451477050777,0.0,21.75,,,,,,,,,,,,,,,,,,,,
0.0,0.092823214828968,3.0058300495147705,-0.4499812159658177,0.1207074150443077,0.0815366134047508,-4.016880484414287e-05,0.0752376019954681,-0.0027632673736661,-2.599826439109165e-05,0.0,2.912163734436035,-0.4174558639526367,0.0,17.0,0.0,2.980470657348633,-0.3731100082397461,0.0,22.25,0.0,3.0498504638671875,-0.3319828033447265,0.0,21.75,,,,,,,,,,,,,,,
0.0,0.092823214828968,3.0058300495147705,-0.4499812159658177,0.1207074150443077,0.0815366134047508,-4.016880484414287e-05,0.0752376019954681,-0.0027632673736661,-2.599826439109165e-05,0.0,2.9178857803344727,-0.42925758361816413,0.0,18.0,0.0,2.971887588500977,-0.3774015426635742,0.0,23.5,,,,,,,,,,,,,,,,,,,,
0.0,0.092823214828968,3.0058300495147705,-0.4499812159658177,0.1207074150443077,0.0815366134047508,-4.016880484414287e-05,0.0752376019954681,-0.0027632673736661,-2.599826439109165e-05,,,,,,,,,,,,,,,,,,,,,,,,,,,,,,
0.0,0.1026980131864547,3.006814956665039,-0.449982017225193,0.1349822282791137,0.0848248228430748,-4.024460213258863e-05,0.0852380990982055,0.0018901710864156,-2.59158496191958e-05,0.0,2.994418144226074,-0.1460163116455079,0.1917510479688644,13.5,0.0,3.020882606506348,-0.07270259857177741,0.1917510479688644,14.25,,,,,,,,,,,,,,,,,,,,
0.0,0.1026980131864547,3.006814956665039,-0.449982017225193,0.1349822282791137,0.0848248228430748,-4.024460213258863e-05,0.0852380990982055,0.0018901710864156,-2.59158496191958e-05,,,,,,,,,,,,,,,,,,,,,,,,,,,,,,
0.0,0.1035816445946693,3.0065953731536865,-0.44998249216696407,0.1365777850151062,0.0862077325582504,-4.012174395029433e-05,0.0865638479590416,0.004699544981122,-2.5737670512171466e-05,0.0,2.967953681945801,-0.3065912246704101,0.1917510479688644,13.75,0.0,3.037691116333008,-0.368818473815918,0.0,20.0,,,,,,,,,,,,,,,,,,,,
0.0,0.1035816445946693,3.0065953731536865,-0.44998249216696407,0.1365777850151062,0.0862077325582504,-4.012174395029433e-05,0.0865638479590416,0.004699544981122,-2.5737670512171466e-05,0.0,3.025531768798828,-0.3648845672607422,0.0,20.75,,,,,,,,,,,,,,,,,,,,,,,,,
0.0,0.1035816445946693,3.0065953731536865,-0.44998249216696407,0.1365777850151062,0.0862077325582504,-4.012174395029433e-05,0.0865638479590416,0.004699544981122,-2.5737670512171466e-05,0.0,3.143191337585449,-0.45321865081787094,0.0,15.25,,,,,,,,,,,,,,,,,,,,,,,,,
0.0,0.1138299107551574,3.005775451660156,-0.44998245802453296,0.1488465219736099,0.0773746147751808,-4.2185736674582586e-05,0.0935288369655609,-0.010518386028707,-2.7168749511474743e-05,0.0,3.0040740966796875,-0.08808059692382819,-0.1917510479688644,12.75,0.0,3.016233444213867,-0.007256698608398504,-0.1917510479688644,13.75,0.0,3.1446218490600586,-0.3752557754516602,0.0,15.5,,,,,,,,,,,,,,,
0.0,0.1138299107551574,3.005775451660156,-0.44998245802453296,0.1488465219736099,0.0773746147751808,-4.2185736674582586e-05,0.0935288369655609,-0.010518386028707,-2.7168749511474743e-05,0.0,2.889275550842285,-0.5594341278076169,0.0,14.0,,,,,,,,,,,,,,,,,,,,,,,,,
0.0,0.1138299107551574,3.005775451660156,-0.44998245802453296,0.1488465219736099,0.0773746147751808,-4.2185736674582586e-05,0.0935288369655609,-0.010518386028707,-2.7168749511474743e-05,0.0,2.8989315032958984,-0.5129425048828125,0.0,14.25,,,,,,,,,,,,,,,,,,,,,,,,,
0.0,0.1138299107551574,3.005775451660156,-0.44998245802453296,0.1488465219736099,0.0773746147751808,-4.2185736674582586e-05,0.0935288369655609,-0.010518386028707,-2.7168749511474743e-05,0.0,2.9010772705078125,-0.4675237655639648,0.0,13.75,,,,,,,,,,,,,,,,,,,,,,,,,
0.0,0.1203298345208168,3.0091519355773926,-0.4499832618414074,0.1588394790887832,0.0829264670610427,-4.289528442313895e-05,0.1009028255939483,-0.004783705342561,-2.7497431801748465e-05,0.0,3.0187368392944336,-0.2579538345336913,0.1917510479688644,15.75,0.0,3.0684471130371094,-0.216826629638672,0.1917510479688644,17.75,0.0,3.137826919555664,-0.2010910034179689,0.1917510479688644,13.25,,,,,,,,,,,,,,,
0.0,0.1270155757665634,3.0107839107513428,-0.4499834222271602,0.1683557331562042,0.0845867022871971,-4.3284966523060575e-05,0.1074709892272949,-0.0039202645421028,-2.7748135835281573e-05,0.0,3.0988454818725586,0.06784515380859368,0.1917510479688644,13.75,0.0,2.9053688049316406,-0.42711181640625,0.0,14.25,0.0,3.023386001586914,-0.4142372131347657,0.0,22.25,,,,,,,,,,,,,,,
0.0,0.1270155757665634,3.0107839107513428,-0.4499834222271602,0.1683557331562042,0.0845867022871971,-4.3284966523060575e-05,0.1074709892272949,-0.0039202645421028,-2.7748135835281573e-05,0.0,3.0215978622436523,-0.42031688690185554,0.0,22.0,,,,,,,,,,,,,,,,,,,,,,,,,
0.0,0.1270155757665634,3.0107839107513428,-0.4499834222271602,0.1683557331562042,0.0845867022871971,-4.3284966523060575e-05,0.1074709892272949,-0.0039202645421028,-2.7748135835281573e-05,0.0,3.01980972290039,-0.4167406082153321,0.0,22.0,0.0,3.063082695007324,-0.41709823608398444,0.0,23.5,0.0,3.1163692474365234,-0.390633773803711,0.0,17.0,,,,,,,,,,,,,,,
0.0,0.1270155757665634,3.0107839107513428,-0.4499834222271602,0.1683557331562042,0.0845867022871971,-4.3284966523060575e-05,0.1074709892272949,-0.0039202645421028,-2.7748135835281573e-05,0.0,2.901434898376465,-0.5036441802978515,0.0,14.5,0.0,3.008723258972168,-0.40887279510498054,0.0,21.25,0.0,3.0591487884521484,-0.4174558639526367,0.0,22.25,0.0,3.120303153991699,-0.3845541000366211,0.0,16.0,,,,,,,,,,
0.0,0.1330091804265976,3.011080503463745,-0.4499833274032426,0.1754312366247177,0.0807268247008323,-4.443555371835828e-05,0.1113967821002006,-0.0114322798326611,-2.8561025828821585e-05,0.0,3.0559301376342773,0.07356719970703118,-0.1917510479688644,14.0,0.0,3.0670166015625,-0.34271163940429683,0.0,20.5,0.0,3.1328201293945312,-0.2944318771362304,0.0,15.25,,,,,,,,,,,,,,,
0.0,0.1330091804265976,3.011080503463745,-0.4499833274032426,0.1754312366247177,0.0807268247008323,-4.443555371835828e-05,0.1113967821002006,-0.0114322798326611,-2.8561025828821585e-05,0.0,2.8717517852783203,-0.5719511032104492,0.0,15.0,0.0,2.977609634399414,-0.3512947082519531,0.0,19.25,0.0,3.1360387802124023,-0.1821367263793946,0.0,14.75,0.0,3.05020809173584,-0.1449434280395508,0.0,19.5,,,,,,,,,,
0.0,0.1330091804265976,3.011080503463745,-0.4499833274032426,0.1754312366247177,0.0807268247008323,-4.443555371835828e-05,0.1113967821002006,-0.0114322798326611,-2.8561025828821585e-05,0.0,2.8821229934692383,-0.6137935638427734,0.0,16.0,0.0,2.960801124572754,-0.5061475753784179,0.0,20.75,0.0,3.0187368392944336,-0.4339067459106446,0.0,19.0,0.0,3.124594688415528,-0.17712993621826179,0.0,12.25,,,,,,,,,,
0.0,0.1330091804265976,3.011080503463745,-0.4499833274032426,0.1754312366247177,0.0807268247008323,-4.443555371835828e-05,0.1113967821002006,-0.0114322798326611,-2.8561025828821585e-05,0.0,2.895712852478028,-0.49899501800537094,0.0,15.5,0.0,2.956509590148926,-0.4439203262329102,0.0,20.0,0.0,3.024458885192871,-0.3280488967895507,0.0,18.25,0.0,3.130316734313965,-0.1249162673950196,0.0,12.5,,,,,,,,,,
0.0,0.1330091804265976,3.011080503463745,-0.4499833274032426,0.1754312366247177,0.0807268247008323,-4.443555371835828e-05,0.1113967821002006,-0.0114322798326611,-2.8561025828821585e-05,,,,,,,,,,,,,,,,,,,,,,,,,,,,,,
0.0,0.1322928667068481,3.009296178817749,-0.44998351229987743,0.1733607202768325,0.0765412002801895,-4.4952303142054006e-05,0.1092789992690086,-0.0167812369763851,-2.886817856051493e-05,0.0,2.9053688049316406,-0.3269760131835937,-0.1917510479688644,12.5,,,,,,,,,,,,,,,,,,,,,,,,,
0.0,0.1322928667068481,3.009296178817749,-0.44998351229987743,0.1733607202768325,0.0765412002801895,-4.4952303142054006e-05,0.1092789992690086,-0.0167812369763851,-2.886817856051493e-05,0.0,3.1442642211914062,-0.3537981033325196,0.0,15.5,,,,,,,,,,,,,,,,,,,,,,,,,
0.0,0.1322928667068481,3.009296178817749,-0.44998351229987743,0.1733607202768325,0.0765412002801895,-4.4952303142054006e-05,0.1092789992690086,-0.0167812369763851,-2.886817856051493e-05,0.0,2.993702888488769,-0.43211860656738277,0.0,18.5,0.0,3.0645132064819336,-0.2887098312377929,0.0,19.25,0.0,3.1464099884033203,-0.3166048049926757,0.0,14.75,,,,,,,,,,,,,,,
0.0,0.1322928667068481,3.009296178817749,-0.44998351229987743,0.1733607202768325,0.0765412002801895,-4.4952303142054006e-05,0.1092789992690086,-0.0167812369763851,-2.886817856051493e-05,0.0,2.884984016418457,-0.5851833343505859,0.0,14.25,0.0,2.990841865539551,-0.4482118606567383,0.0,20.0,0.0,3.0645132064819336,-0.3280488967895507,0.0,20.25,0.0,3.1446218490600586,-0.2182571411132814,0.0,16.0,,,,,,,,,,
0.0,0.1322928667068481,3.009296178817749,-0.44998351229987743,0.1733607202768325,0.0765412002801895,-4.4952303142054006e-05,0.1092789992690086,-0.0167812369763851,-2.886817856051493e-05,0.0,2.877116203308105,-0.4528610229492187,0.0,12.5,0.0,3.002285957336426,-0.2951471328735351,0.0,18.25,0.0,3.0781030654907227,-0.2626029968261718,0.0,19.75,0.0,3.141045570373535,-0.16568584442138679,0.0,16.0,,,,,,,,,,
0.0,0.1322928667068481,3.009296178817749,-0.44998351229987743,0.1733607202768325,0.0765412002801895,-4.4952303142054006e-05,0.1092789992690086,-0.0167812369763851,-2.886817856051493e-05,,,,,,,,,,,,,,,,,,,,,,,,,,,,,,
0.0,0.1322928667068481,3.009296178817749,-0.44998351229987743,0.1733607202768325,0.0765412002801895,-4.4952303142054006e-05,0.1092789992690086,-0.0167812369763851,-2.886817856051493e-05,,,,,,,,,,,,,,,,,,,,,,,,,,,,,,
0.0,0.1322928667068481,3.009296178817749,-0.44998351229987743,0.1733607202768325,0.0765412002801895,-4.4952303142054006e-05,0.1092789992690086,-0.0167812369763851,-2.886817856051493e-05,,,,,,,,,,,,,,,,,,,,,,,,,,,,,,
0.0,0.1322928667068481,3.009296178817749,-0.44998351229987743,0.1733607202768325,0.0765412002801895,-4.4952303142054006e-05,0.1092789992690086,-0.0167812369763851,-2.886817856051493e-05,,,,,,,,,,,,,,,,,,,,,,,,,,,,,,
0.0,0.1322928667068481,3.009296178817749,-0.44998351229987743,0.1733607202768325,0.0765412002801895,-4.4952303142054006e-05,0.1092789992690086,-0.0167812369763851,-2.886817856051493e-05,0.0,2.9096603393554688,-0.3716794967651367,0.0,12.75,0.0,3.138899803161621,-0.1749841690063478,0.0,17.0,,,,,,,,,,,,,,,,,,,,
0.0,0.1322928667068481,3.009296178817749,-0.44998351229987743,0.1733607202768325,0.0765412002801895,-4.4952303142054006e-05,0.1092789992690086,-0.0167812369763851,-2.886817856051493e-05,0.0,2.910375595092773,-0.48826618194580074,0.0,13.75,0.0,3.014087677001953,-0.3144590377807617,0.0,20.5,0.0,3.0809640884399414,-0.2955047607421874,0.0,22.25,0.0,3.149986267089844,-0.2872793197631836,0.0,18.25,,,,,,,,,,
0.0,0.1322928667068481,3.009296178817749,-0.44998351229987743,0.1733607202768325,0.0765412002801895,-4.4952303142054006e-05,0.1092789992690086,-0.0167812369763851,-2.886817856051493e-05,0.0,2.929329872131348,-0.4153100967407227,0.0,13.75,0.0,3.0230283737182617,-0.39170665740966804,0.0,21.5,0.0,3.0759572982788086,-0.3799049377441407,0.0,23.0,0.0,3.149986267089844,-0.4052965164184571,0.0,18.25,,,,,,,,,,
0.0,0.1322928667068481,3.009296178817749,-0.44998351229987743,0.1733607202768325,0.0765412002801895,-4.4952303142054006e-05,0.1092789992690086,-0.0167812369763851,-2.886817856051493e-05,0.0,2.92825698852539,-0.5601493835449217,0.0,14.0,0.0,3.0312538146972656,-0.4306880950927735,0.0,22.25,0.0,3.0798912048339844,-0.4081575393676758,0.0,24.0,0.0,3.140687942504883,-0.3713218688964844,0.0,19.25,,,,,,,,,,
0.0,0.1322928667068481,3.009296178817749,-0.44998351229987743,0.1733607202768325,0.0765412002801895,-4.4952303142054006e-05,0.1092789992690086,-0.0167812369763851,-2.886817856051493e-05,0.0,2.904295921325684,-0.5605070114135742,0.0,13.75,0.0,2.993702888488769,-0.5225984573364256,0.0,19.5,0.0,3.073453903198242,-0.5125848770141601,0.0,20.0,0.0,3.167867660522461,-0.509366226196289,0.0,16.5,,,,,,,,,,
0.0,0.1322928667068481,3.009296178817749,-0.44998351229987743,0.1733607202768325,0.0765412002801895,-4.4952303142054006e-05,0.1092789992690086,-0.0167812369763851,-2.886817856051493e-05,0.0,2.986907958984375,-0.4889814376831054,0.0,19.0,0.0,3.06093692779541,-0.4879085540771484,0.0,19.25,0.0,3.151059150695801,-0.531181526184082,0.0,14.5,,,,,,,,,,,,,,,
0.0,0.1322928667068481,3.009296178817749,-0.44998351229987743,0.1733607202768325,0.0765412002801895,-4.4952303142054006e-05,0.1092789992690086,-0.0167812369763851,-2.886817856051493e-05,0.0,2.9801130294799805,-0.5075780868530273,0.0,17.5,0.0,3.072738647460937,-0.4950611114501952,0.0,17.75,0.0,3.1821727752685547,-0.5433408737182617,0.0,14.25,,,,,,,,,,,,,,,
0.0,0.1322928667068481,3.009296178817749,-0.44998351229987743,0.1733607202768325,0.0765412002801895,-4.4952303142054006e-05,0.1092789992690086,-0.0167812369763851,-2.886817856051493e-05,0.0,3.022313117980957,-0.5200950622558592,0.0,17.0,0.0,3.10671329498291,-0.45751018524169906,0.0,19.75,0.0,3.1718015670776367,-0.4721729278564452,0.0,16.75,,,,,,,,,,,,,,,
0.0,0.1322928667068481,3.009296178817749,-0.44998351229987743,0.1733607202768325,0.0765412002801895,-4.4952303142054006e-05,0.1092789992690086,-0.0167812369763851,-2.886817856051493e-05,0.0,3.024458885192871,-0.4764644622802734,0.0,16.75,0.0,3.095269203186035,-0.5011407852172851,0.0,19.25,0.0,3.165721893310547,-0.47360343933105453,0.0,15.5,,,,,,,,,,,,,,,
0.0,0.1322928667068481,3.009296178817749,-0.44998351229987743,0.1733607202768325,0.0765412002801895,-4.4952303142054006e-05,0.1092789992690086,-0.0167812369763851,-2.886817856051493e-05,0.0,3.035902976989746,-0.4732458114624023,0.0,19.0,0.0,3.097414970397949,-0.461444091796875,0.0,21.75,0.0,3.1567811965942383,-0.4221050262451172,0.0,17.75,,,,,,,,,,,,,,,
0.0,0.1322928667068481,3.009296178817749,-0.44998351229987743,0.1733607202768325,0.0765412002801895,-4.4952303142054006e-05,0.1092789992690086,-0.0167812369763851,-2.886817856051493e-05,0.0,3.020882606506348,-0.5258171081542967,0.0,19.75,0.0,3.071308135986328,-0.5047170639038083,0.0,21.75,0.0,3.136754035949707,-0.4288999557495117,0.0,16.25,,,,,,,,,,,,,,,
0.0,0.1322928667068481,3.009296178817749,-0.44998351229987743,0.1733607202768325,0.0765412002801895,-4.4952303142054006e-05,0.1092789992690086,-0.0167812369763851,-2.886817856051493e-05,0.0,2.888202667236328,-0.5451290130615234,0.0,12.25,0.0,3.008365631103516,-0.4696695327758788,0.0,18.5,0.0,3.0688047409057617,-0.44320507049560554,0.0,20.0,0.0,3.143191337585449,-0.3956405639648438,0.0,14.5,,,,,,,,,,
0.0,0.1322928667068481,3.009296178817749,-0.44998351229987743,0.1733607202768325,0.0765412002801895,-4.4952303142054006e-05,0.1092789992690086,-0.0167812369763851,-2.886817856051493e-05,0.0,3.021240234375,-0.49899501800537094,0.0,19.5,0.0,3.074526786804199,-0.43211860656738277,0.0,21.0,0.0,3.1478404998779297,-0.4095880508422852,0.0,16.0,,,,,,,,,,,,,,,
0.0,0.1322928667068481,3.009296178817749,-0.44998351229987743,0.1733607202768325,0.0765412002801895,-4.4952303142054006e-05,0.1092789992690086,-0.0167812369763851,-2.886817856051493e-05,0.0,3.015875816345215,-0.4288999557495117,0.0,19.0,0.0,3.079533576965332,-0.3788320541381836,0.0,20.75,0.0,3.154635429382324,-0.3970710754394532,0.0,16.0,,,,,,,,,,,,,,,
0.0,0.1322928667068481,3.009296178817749,-0.44998351229987743,0.1733607202768325,0.0765412002801895,-4.4952303142054006e-05,0.1092789992690086,-0.0167812369763851,-2.886817856051493e-05,0.0,3.032684326171875,-0.436410140991211,0.0,19.5,0.0,3.097057342529297,-0.36345405578613277,0.0,22.0,0.0,3.1560659408569336,-0.3902761459350586,0.0,18.25,,,,,,,,,,,,,,,
0.0,0.1322928667068481,3.009296178817749,-0.44998351229987743,0.1733607202768325,0.0765412002801895,-4.4952303142054006e-05,0.1092789992690086,-0.0167812369763851,-2.886817856051493e-05,0.0,2.9125213623046875,-0.5737392425537109,0.0,13.5,0.0,3.028392791748047,-0.4896966934204101,0.0,21.0,0.0,3.08382511138916,-0.4242507934570313,0.0,23.0,0.0,3.14176082611084,-0.3938524246215821,0.0,18.25,,,,,,,,,,
0.0,0.1322928667068481,3.009296178817749,-0.44998351229987743,0.1733607202768325,0.0765412002801895,-4.4952303142054006e-05,0.1092789992690086,-0.0167812369763851,-2.886817856051493e-05,0.0,3.0115842819213867,-0.452145767211914,0.0,19.5,0.0,3.082394599914551,-0.3638116836547852,0.0,21.0,0.0,3.158211708068848,-0.3294794082641601,0.0,17.0,,,,,,,,,,,,,,,
0.0,0.1322928667068481,3.009296178817749,-0.44998351229987743,0.1733607202768325,0.0765412002801895,-4.4952303142054006e-05,0.1092789992690086,-0.0167812369763851,-2.886817856051493e-05,0.0,3.0115842819213867,-0.37489814758300777,0.0,18.0,0.0,3.090977668762207,-0.3194658279418946,0.0,20.0,0.0,3.166794776916504,-0.3380624771118163,0.0,16.5,,,,,,,,,,,,,,,
0.0,0.1322928667068481,3.009296178817749,-0.44998351229987743,0.1733607202768325,0.0765412002801895,-4.4952303142054006e-05,0.1092789992690086,-0.0167812369763851,-2.886817856051493e-05,0.0,2.881765365600586,-0.6027070999145506,0.0,13.0,0.0,3.003358840942383,-0.4221050262451172,0.0,19.5,0.0,3.075242042541504,-0.3516523361206055,0.0,20.25,0.0,3.1621456146240234,-0.3223268508911132,0.0,16.25,,,,,,,,,,
0.0,0.1322928667068481,3.009296178817749,-0.44998351229987743,0.1733607202768325,0.0765412002801895,-4.4952303142054006e-05,0.1092789992690086,-0.0167812369763851,-2.886817856051493e-05,0.0,3.0301809310913086,-0.2719013214111327,0.0,16.25,0.0,3.1152963638305664,-0.2811996459960937,0.0,19.5,0.0,3.178954124450684,-0.3316251754760742,0.0,17.0,,,,,,,,,,,,,,,
0.0,0.1322928667068481,3.009296178817749,-0.44998351229987743,0.1733607202768325,0.0765412002801895,-4.4952303142054006e-05,0.1092789992690086,-0.0167812369763851,-2.886817856051493e-05,0.0,3.119230270385742,-0.3666727066040038,0.0,20.25,0.0,3.1746625900268555,-0.43176097869873054,0.0,17.25,0.0,3.0437707901000977,-0.2765504837036132,0.0,16.75,,,,,,,,,,,,,,,
0.0,0.1322928667068481,3.009296178817749,-0.44998351229987743,0.1733607202768325,0.0765412002801895,-4.4952303142054006e-05,0.1092789992690086,-0.0167812369763851,-2.886817856051493e-05,0.0,3.166079521179199,-0.3298370361328124,0.0,15.25,,,,,,,,,,,,,,,,,,,,,,,,,
0.0,0.1322928667068481,3.009296178817749,-0.44998351229987743,0.1733607202768325,0.0765412002801895,-4.4952303142054006e-05,0.1092789992690086,-0.0167812369763851,-2.886817856051493e-05,0.0,3.026247024536133,-0.38348121643066413,0.0,17.75,0.0,3.0673742294311523,-0.41495246887207027,0.0,19.5,0.0,3.1414031982421875,-0.3899185180664063,0.0,13.75,,,,,,,,,,,,,,,
0.0,0.1322928667068481,3.009296178817749,-0.44998351229987743,0.1733607202768325,0.0765412002801895,-4.4952303142054006e-05,0.1092789992690086,-0.0167812369763851,-2.886817856051493e-05,0.0,3.0226707458496094,-0.415667724609375,0.0,16.5,0.0,3.088831901550293,-0.46001358032226547,0.0,18.75,0.0,3.1603574752807617,-0.4668085098266601,0.0,14.75,,,,,,,,,,,,,,,
0.0,0.1322928667068481,3.009296178817749,-0.44998351229987743,0.1733607202768325,0.0765412002801895,-4.4952303142054006e-05,0.1092789992690086,-0.0167812369763851,-2.886817856051493e-05,0.0,3.018379211425781,-0.3602354049682617,0.0,17.75,0.0,3.0695199966430664,-0.38062019348144527,0.0,19.0,0.0,3.153562545776367,-0.4081575393676758,0.0,14.0,,,,,,,,,,,,,,,
0.0,0.1322928667068481,3.009296178817749,-0.44998351229987743,0.1733607202768325,0.0765412002801895,-4.4952303142054006e-05,0.1092789992690086,-0.0167812369763851,-2.886817856051493e-05,0.0,3.003716468811035,-0.41459484100341804,0.0,18.0,0.0,3.073453903198242,-0.49720687866210933,0.0,18.5,0.0,3.1682252883911133,-0.44928474426269527,0.0,14.5,,,,,,,,,,,,,,,
0.0,0.1322928667068481,3.009296178817749,-0.44998351229987743,0.1733607202768325,0.0765412002801895,-4.4952303142054006e-05,0.1092789992690086,-0.0167812369763851,-2.886817856051493e-05,0.0,2.8034448623657227,-0.7665006637573242,0.0,12.75,0.0,3.176808357238769,-0.39206428527832027,0.0,13.75,0.0,2.9854774475097656,-0.2629606246948242,0.0,15.75,0.0,3.081679344177246,-0.2261249542236329,0.0,17.25,,,,,,,,,,
0.0,0.1322928667068481,3.009296178817749,-0.44998351229987743,0.1733607202768325,0.0765412002801895,-4.4952303142054006e-05,0.1092789992690086,-0.0167812369763851,-2.886817856051493e-05,0.0,2.987265586853028,-0.447854232788086,0.0,15.25,0.0,3.0813217163085938,-0.39492530822753913,0.0,16.25,0.0,3.180384635925293,-0.47038478851318344,0.0,12.5,,,,,,,,,,,,,,,
0.0,0.1322928667068481,3.009296178817749,-0.44998351229987743,0.1733607202768325,0.0765412002801895,-4.4952303142054006e-05,0.1092789992690086,-0.0167812369763851,-2.886817856051493e-05,0.0,2.972245216369629,-0.5837528228759765,0.0,15.75,0.0,3.0759572982788086,-0.3820507049560547,0.0,16.0,0.0,3.1861066818237305,-0.447854232788086,0.0,12.5,,,,,,,,,,,,,,,
0.0,0.1322928667068481,3.009296178817749,-0.44998351229987743,0.1733607202768325,0.0765412002801895,-4.4952303142054006e-05,0.1092789992690086,-0.0167812369763851,-2.886817856051493e-05,0.0,2.822399139404297,-0.7207242965698242,0.0,13.75,0.0,2.977609634399414,-0.5494205474853515,0.0,17.5,0.0,3.082394599914551,-0.47932548522949203,0.0,18.25,0.0,3.179311752319336,-0.40923042297363277,0.0,14.5,,,,,,,,,,
0.0,0.1322928667068481,3.009296178817749,-0.44998351229987743,0.1733607202768325,0.0765412002801895,-4.4952303142054006e-05,0.1092789992690086,-0.0167812369763851,-2.886817856051493e-05,0.0,2.785563468933105,-0.8079854965209959,0.0,12.5,0.0,3.1020641326904297,-0.6270257949829101,0.0,16.5,0.0,2.980470657348633,-0.541552734375,0.0,14.75,0.0,3.1964778900146484,-0.5075780868530273,0.0,14.25,,,,,,,,,,
0.0,0.1322928667068481,3.009296178817749,-0.44998351229987743,0.1733607202768325,0.0765412002801895,-4.4952303142054006e-05,0.1092789992690086,-0.0167812369763851,-2.886817856051493e-05,0.0,3.1260251998901367,-0.3795473098754883,0.0,18.75,0.0,3.1932592391967773,-0.462516975402832,0.0,16.25,0.0,3.020882606506348,-0.333413314819336,0.0,15.0,,,,,,,,,,,,,,,
0.0,0.1322928667068481,3.009296178817749,-0.44998351229987743,0.1733607202768325,0.0765412002801895,-4.4952303142054006e-05,0.1092789992690086,-0.0167812369763851,-2.886817856051493e-05,0.0,3.005504608154297,-0.49434585571289047,0.0,12.75,0.0,3.1467676162719727,-0.5068628311157226,0.0,17.25,0.0,3.210067749023437,-0.4846899032592773,0.0,15.75,,,,,,,,,,,,,,,
0.0,0.1322928667068481,3.009296178817749,-0.44998351229987743,0.1733607202768325,0.0765412002801895,-4.4952303142054006e-05,0.1092789992690086,-0.0167812369763851,-2.886817856051493e-05,0.0,2.7676820755004883,-0.9134857177734376,0.0,12.0,0.0,3.011941909790039,-0.6080715179443359,0.0,15.75,0.0,3.1195878982543945,-0.475033950805664,0.0,19.0,0.0,3.178238868713379,-0.333413314819336,0.0,16.0,,,,,,,,,,
0.0,0.1322928667068481,3.009296178817749,-0.44998351229987743,0.1733607202768325,0.0765412002801895,-4.4952303142054006e-05,0.1092789992690086,-0.0167812369763851,-2.886817856051493e-05,0.0,3.0226707458496094,-0.6652919769287109,0.0,15.0,0.0,3.179311752319336,-0.379189682006836,0.0,16.0,,,,,,,,,,,,,,,,,,,,
0.0,0.1322928667068481,3.009296178817749,-0.44998351229987743,0.1733607202768325,0.0765412002801895,-4.4952303142054006e-05,0.1092789992690086,-0.0167812369763851,-2.886817856051493e-05,0.0,2.9979944229125977,-0.6978361129760742,0.0,16.0,,,,,,,,,,,,,,,,,,,,,,,,,
0.0,0.1322928667068481,3.009296178817749,-0.44998351229987743,0.1733607202768325,0.0765412002801895,-4.4952303142054006e-05,0.1092789992690086,-0.0167812369763851,-2.886817856051493e-05,0.0,2.7970075607299805,-0.938877296447754,0.0,12.0,,,,,,,,,,,,,,,,,,,,,,,,,
0.0,0.1322928667068481,3.009296178817749,-0.44998351229987743,0.1733607202768325,0.0765412002801895,-4.4952303142054006e-05,0.1092789992690086,-0.0167812369763851,-2.886817856051493e-05,,,,,,,,,,,,,,,,,,,,,,,,,,,,,,
0.0,0.1322928667068481,3.009296178817749,-0.44998351229987743,0.1733607202768325,0.0765412002801895,-4.4952303142054006e-05,0.1092789992690086,-0.0167812369763851,-2.886817856051493e-05,,,,,,,,,,,,,,,,,,,,,,,,,,,,,,
0.0,0.1322928667068481,3.009296178817749,-0.44998351229987743,0.1733607202768325,0.0765412002801895,-4.4952303142054006e-05,0.1092789992690086,-0.0167812369763851,-2.886817856051493e-05,0.0,2.802729606628418,-0.9649841308593751,0.0,12.25,0.0,3.0072927474975586,-0.6373970031738281,0.0,18.0,0.0,3.072023391723633,-0.5762426376342773,0.0,19.75,0.0,3.139257431030273,-0.4221050262451172,0.0,14.5,,,,,,,,,,
0.0,0.1322928667068481,3.009296178817749,-0.44998351229987743,0.1733607202768325,0.0765412002801895,-4.4952303142054006e-05,0.1092789992690086,-0.0167812369763851,-2.886817856051493e-05,0.0,2.8384923934936523,-0.918134880065918,0.0,12.5,0.0,3.014802932739258,-0.6052104949951171,0.0,19.25,0.0,3.073453903198242,-0.5487052917480467,0.0,20.75,0.0,3.147125244140625,-0.47360343933105453,0.0,15.75,,,,,,,,,,
0.0,0.1322928667068481,3.009296178817749,-0.44998351229987743,0.1733607202768325,0.0765412002801895,-4.4952303142054006e-05,0.1092789992690086,-0.0167812369763851,-2.886817856051493e-05,0.0,2.8209686279296875,-0.9882299423217774,0.0,12.5,0.0,3.002643585205078,-0.6109325408935546,0.0,19.0,0.0,3.058433532714844,-0.5440561294555665,0.0,19.75,0.0,3.1442642211914062,-0.46859664916992183,0.0,13.75,,,,,,,,,,
0.0,0.1322928667068481,3.009296178817749,-0.44998351229987743,0.1733607202768325,0.0765412002801895,-4.4952303142054006e-05,0.1092789992690086,-0.0167812369763851,-2.886817856051493e-05,0.0,2.823472023010254,-0.938877296447754,0.0,13.25,0.0,3.001928329467773,-0.6263105392456054,0.0,19.75,0.0,3.0530691146850586,-0.5934087753295898,0.0,20.5,0.0,3.137826919555664,-0.5469171524047851,0.0,14.25,,,,,,,,,,
0.0,0.1322928667068481,3.009296178817749,-0.44998351229987743,0.1733607202768325,0.0765412002801895,-4.4952303142054006e-05,0.1092789992690086,-0.0167812369763851,-2.886817856051493e-05,0.0,2.816319465637207,-0.9084789276123048,0.0,12.25,0.0,3.022313117980957,-0.5315391540527342,0.0,19.25,0.0,3.066658973693848,-0.5165187835693359,0.0,20.75,0.0,3.139615058898926,-0.48182888031005844,0.0,14.75,,,,,,,,,,
0.0,0.1322928667068481,3.009296178817749,-0.44998351229987743,0.1733607202768325,0.0765412002801895,-4.4952303142054006e-05,0.1092789992690086,-0.0167812369763851,-2.886817856051493e-05,0.0,3.0062198638916016,-0.5508510589599609,0.0,17.5,0.0,3.072023391723633,-0.4775373458862304,0.0,18.75,0.0,3.151416778564453,-0.3419963836669922,0.0,13.5,,,,,,,,,,,,,,,
0.0,0.1322928667068481,3.009296178817749,-0.44998351229987743,0.1733607202768325,0.0765412002801895,-4.4952303142054006e-05,0.1092789992690086,-0.0167812369763851,-2.886817856051493e-05,0.0,2.776622772216797,-0.9292213439941407,0.0,13.0,0.0,2.971529960632324,-0.6152240753173829,0.0,16.0,0.0,3.068089485168457,-0.561222267150879,0.0,16.75,0.0,3.160715103149414,-0.590547752380371,0.0,12.25,,,,,,,,,,
0.0,0.1322928667068481,3.009296178817749,-0.44998351229987743,0.1733607202768325,0.0765412002801895,-4.4952303142054006e-05,0.1092789992690086,-0.0167812369763851,-2.886817856051493e-05,0.0,2.754449844360352,-0.9771434783935548,0.0,12.25,0.0,2.9593706130981445,-0.6896106719970704,0.0,14.25,0.0,3.0612945556640625,-0.7253734588623046,0.0,15.25,,,,,,,,,,,,,,,
0.0,0.1322928667068481,3.009296178817749,-0.44998351229987743,0.1733607202768325,0.0765412002801895,-4.4952303142054006e-05,0.1092789992690086,-0.0167812369763851,-2.886817856051493e-05,0.0,2.964019775390625,-0.4592983245849609,0.0,15.25,0.0,3.05020809173584,-0.4675237655639648,0.0,14.5,,,,,,,,,,,,,,,,,,,,
0.0,0.1322928667068481,3.009296178817749,-0.44998351229987743,0.1733607202768325,0.0765412002801895,-4.4952303142054006e-05,0.1092789992690086,-0.0167812369763851,-2.886817856051493e-05,0.0,2.9790401458740234,-0.5590764999389648,0.0,16.5,0.0,3.045201301574707,-0.5025712966918945,0.0,16.5,,,,,,,,,,,,,,,,,,,,
0.0,0.1322928667068481,3.009296178817749,-0.44998351229987743,0.1733607202768325,0.0765412002801895,-4.4952303142054006e-05,0.1092789992690086,-0.0167812369763851,-2.886817856051493e-05,0.0,2.995133399963379,-0.42925758361816413,0.0,13.75,0.0,3.0688047409057617,-0.3588048934936524,0.0,15.0,,,,,,,,,,,,,,,,,,,,
0.0,0.1322928667068481,3.009296178817749,-0.44998351229987743,0.1733607202768325,0.0765412002801895,-4.4952303142054006e-05,0.1092789992690086,-0.0167812369763851,-2.886817856051493e-05,0.0,3.070950508117676,-0.4346220016479492,0.0,18.5,0.0,3.147125244140625,-0.4281847000122071,0.0,13.0,,,,,,,,,,,,,,,,,,,,
0.0,0.1322928667068481,3.009296178817749,-0.44998351229987743,0.1733607202768325,0.0765412002801895,-4.4952303142054006e-05,0.1092789992690086,-0.0167812369763851,-2.886817856051493e-05,0.0,3.0230283737182617,-0.46537799835205074,0.0,15.25,0.0,3.079533576965332,-0.45321865081787094,0.0,17.25,0.0,3.1539201736450195,-0.43533725738525386,0.0,12.25,,,,,,,,,,,,,,,
0.0,0.1322928667068481,3.009296178817749,-0.44998351229987743,0.1733607202768325,0.0765412002801895,-4.4952303142054006e-05,0.1092789992690086,-0.0167812369763851,-2.886817856051493e-05,0.0,3.0280351638793945,-0.4650203704833984,0.0,17.75,0.0,3.06093692779541,-0.4310457229614258,0.0,19.0,0.0,3.137826919555664,-0.41244907379150386,0.0,13.0,,,,,,,,,,,,,,,
0.0,0.1322928667068481,3.009296178817749,-0.44998351229987743,0.1733607202768325,0.0765412002801895,-4.4952303142054006e-05,0.1092789992690086,-0.0167812369763851,-2.886817856051493e-05,0.0,3.0308961868286133,-0.4428474426269532,0.0,16.5,0.0,3.0705928802490234,-0.4460660934448242,0.0,18.0,0.0,3.1474828720092773,-0.484332275390625,0.0,12.5,,,,,,,,,,,,,,,
0.0,0.1322928667068481,3.009296178817749,-0.44998351229987743,0.1733607202768325,0.0765412002801895,-4.4952303142054006e-05,0.1092789992690086,-0.0167812369763851,-2.886817856051493e-05,0.0,3.009796142578125,-0.3934947967529297,0.0,17.25,0.0,3.0580759048461914,-0.40636940002441413,0.0,18.0,0.0,3.1485557556152344,-0.4103033065795899,0.0,12.25,,,,,,,,,,,,,,,
0.0,0.1322928667068481,3.009296178817749,-0.44998351229987743,0.1733607202768325,0.0765412002801895,-4.4952303142054006e-05,0.1092789992690086,-0.0167812369763851,-2.886817856051493e-05,0.0,3.130674362182617,-0.4832593917846679,0.0,13.0,,,,,,,,,,,,,,,,,,,,,,,,,
0.0,0.1322928667068481,3.009296178817749,-0.44998351229987743,0.1733607202768325,0.0765412002801895,-4.4952303142054006e-05,0.1092789992690086,-0.0167812369763851,-2.886817856051493e-05,,,,,,,,,,,,,,,,,,,,,,,,,,,,,,
0.0,0.1322928667068481,3.009296178817749,-0.44998351229987743,0.1733607202768325,0.0765412002801895,-4.4952303142054006e-05,0.1092789992690086,-0.0167812369763851,-2.886817856051493e-05,,,,,,,,,,,,,,,,,,,,,,,,,,,,,,
0.0,0.1322928667068481,3.009296178817749,-0.44998351229987743,0.1733607202768325,0.0765412002801895,-4.4952303142054006e-05,0.1092789992690086,-0.0167812369763851,-2.886817856051493e-05,,,,,,,,,,,,,,,,,,,,,,,,,,,,,,
0.0,0.1322928667068481,3.009296178817749,-0.44998351229987743,0.1733607202768325,0.0765412002801895,-4.4952303142054006e-05,0.1092789992690086,-0.0167812369763851,-2.886817856051493e-05,,,,,,,,,,,,,,,,,,,,,,,,,,,,,,
0.0,0.1322928667068481,3.009296178817749,-0.44998351229987743,0.1733607202768325,0.0765412002801895,-4.4952303142054006e-05,0.1092789992690086,-0.0167812369763851,-2.886817856051493e-05,0.0,3.023386001586914,-0.509366226196289,0.0,17.75,,,,,,,,,,,,,,,,,,,,,,,,,
0.0,0.1322928667068481,3.009296178817749,-0.44998351229987743,0.1733607202768325,0.0765412002801895,-4.4952303142054006e-05,0.1092789992690086,-0.0167812369763851,-2.886817856051493e-05,0.0,3.0040740966796875,-0.5179492950439454,0.0,18.5,0.0,3.0487775802612305,-0.5215255737304687,0.0,19.0,,,,,,,,,,,,,,,,,,,,
0.0,0.1322928667068481,3.009296178817749,-0.44998351229987743,0.1733607202768325,0.0765412002801895,-4.4952303142054006e-05,0.1092789992690086,-0.0167812369763851,-2.886817856051493e-05,0.0,3.0155181884765625,-0.484332275390625,0.0,17.75,0.0,3.066658973693848,-0.47288818359375,0.0,18.75,,,,,,,,,,,,,,,,,,,,
0.0,0.1322928667068481,3.009296178817749,-0.44998351229987743,0.1733607202768325,0.0765412002801895,-4.4952303142054006e-05,0.1092789992690086,-0.0167812369763851,-2.886817856051493e-05,0.0,3.021240234375,-0.5254594802856445,0.0,17.0,0.0,3.087401390075684,-0.45894069671630844,0.0,18.75,0.0,3.165721893310547,-0.415667724609375,0.0,15.0,,,,,,,,,,,,,,,
0.0,0.1322928667068481,3.009296178817749,-0.44998351229987743,0.1733607202768325,0.0765412002801895,-4.4952303142054006e-05,0.1092789992690086,-0.0167812369763851,-2.886817856051493e-05,0.0,3.014802932739258,-0.5229560852050781,0.0,17.25,0.0,3.0820369720458984,-0.4954187393188476,0.0,19.0,0.0,3.1610727310180664,-0.3795473098754883,0.0,14.75,,,,,,,,,,,,,,,
0.0,0.1322928667068481,3.009296178817749,-0.44998351229987743,0.1733607202768325,0.0765412002801895,-4.4952303142054006e-05,0.1092789992690086,-0.0167812369763851,-2.886817856051493e-05,0.0,3.020167350769043,-0.43426437377929694,0.0,17.25,0.0,3.084897994995117,-0.47610683441162094,0.0,19.25,0.0,3.1589269638061523,-0.3706066131591797,0.0,15.0,,,,,,,,,,,,,,,
0.0,0.1322928667068481,3.009296178817749,-0.44998351229987743,0.1733607202768325,0.0765412002801895,-4.4952303142054006e-05,0.1092789992690086,-0.0167812369763851,-2.886817856051493e-05,0.0,3.017306327819824,-0.4671661376953125,0.0,17.0,0.0,3.082752227783203,-0.48290176391601547,0.0,19.0,0.0,3.150343894958496,-0.4196016311645508,0.0,14.5,,,,,,,,,,,,,,,
0.0,0.1322928667068481,3.009296178817749,-0.44998351229987743,0.1733607202768325,0.0765412002801895,-4.4952303142054006e-05,0.1092789992690086,-0.0167812369763851,-2.886817856051493e-05,0.0,2.864241600036621,-0.6177274703979492,0.0,12.5,0.0,2.995133399963379,-0.4274694442749024,0.0,18.25,0.0,3.065943717956543,-0.4693119049072265,0.0,18.75,0.0,3.149986267089844,-0.3734676361083985,0.0,14.0,,,,,,,,,,
0.0,0.1322928667068481,3.009296178817749,-0.44998351229987743,0.1733607202768325,0.0765412002801895,-4.4952303142054006e-05,0.1092789992690086,-0.0167812369763851,-2.886817856051493e-05,0.0,2.8635263442993164,-0.644549560546875,0.0,13.75,0.0,2.9886960983276367,-0.4904119491577148,0.0,19.25,0.0,3.054141998291016,-0.5075780868530273,0.0,19.5,0.0,3.141045570373535,-0.42389316558837886,0.0,13.75,,,,,,,,,,
0.0,0.1322928667068481,3.009296178817749,-0.44998351229987743,0.1733607202768325,0.0765412002801895,-4.4952303142054006e-05,0.1092789992690086,-0.0167812369763851,-2.886817856051493e-05,0.0,2.856016159057617,-0.7089225769042968,0.0,14.75,0.0,2.971887588500977,-0.5698053359985351,0.0,19.25,0.0,3.0344724655151367,-0.5547849655151367,0.0,19.0,0.0,3.133535385131836,-0.4381982803344727,0.0,12.25,,,,,,,,,,
0.0,0.1322928667068481,3.009296178817749,-0.44998351229987743,0.1733607202768325,0.0765412002801895,-4.4952303142054006e-05,0.1092789992690086,-0.0167812369763851,-2.886817856051493e-05,0.0,2.873539924621582,-0.6599275588989256,0.0,14.0,0.0,3.008008003234864,-0.4993526458740234,0.0,20.25,0.0,3.0673742294311523,-0.48576278686523433,0.0,21.25,0.0,3.136754035949707,-0.4210321426391602,0.0,16.0,,,,,,,,,,
0.0,0.1322928667068481,3.009296178817749,-0.44998351229987743,0.1733607202768325,0.0765412002801895,-4.4952303142054006e-05,0.1092789992690086,-0.0167812369763851,-2.886817856051493e-05,0.0,2.879619598388672,-0.554069709777832,0.0,13.5,0.0,3.006577491760254,-0.4707424163818359,0.0,19.75,0.0,3.066658973693848,-0.5075780868530273,0.0,20.75,0.0,3.141045570373535,-0.4196016311645508,0.0,15.25,,,,,,,,,,
0.0,0.1322928667068481,3.009296178817749,-0.44998351229987743,0.1733607202768325,0.0765412002801895,-4.4952303142054006e-05,0.1092789992690086,-0.0167812369763851,-2.886817856051493e-05,0.0,2.822399139404297,-0.8355228424072264,0.0,13.5,0.0,2.978682518005371,-0.5140153884887695,0.0,17.25,0.0,3.062725067138672,-0.4167406082153321,0.0,17.5,0.0,3.174304962158203,-0.3452150344848632,0.0,13.0,,,,,,,,,,
0.0,0.1322928667068481,3.009296178817749,-0.44998351229987743,0.1733607202768325,0.0765412002801895,-4.4952303142054006e-05,0.1092789992690086,-0.0167812369763851,-2.886817856051493e-05,0.0,2.8241872787475586,-0.7879583358764648,0.0,12.75,0.0,2.9865503311157227,-0.4732458114624023,0.0,16.75,0.0,3.0798912048339844,-0.4242507934570313,0.0,17.5,0.0,3.176808357238769,-0.4138795852661133,0.0,13.75,,,,,,,,,,
0.0,0.1322928667068481,3.009296178817749,-0.44998351229987743,0.1733607202768325,0.0765412002801895,-4.4952303142054006e-05,0.1092789992690086,-0.0167812369763851,-2.886817856051493e-05,0.0,2.810597419738769,-0.797614288330078,0.0,13.0,0.0,2.979397773742676,-0.4668085098266601,0.0,16.5,0.0,3.064155578613281,-0.3394929885864257,0.0,16.75,,,,,,,,,,,,,,,
0.0,0.1322928667068481,3.009296178817749,-0.44998351229987743,0.1733607202768325,0.0765412002801895,-4.4952303142054006e-05,0.1092789992690086,-0.0167812369763851,-2.886817856051493e-05,0.0,2.8209686279296875,-0.7808057785034179,0.0,12.5,0.0,2.995133399963379,-0.44928474426269527,0.0,16.5,0.0,3.0770301818847656,-0.3344861984252929,0.0,17.75,0.0,3.165721893310547,-0.2930013656616211,0.0,13.0,,,,,,,,,,
0.0,0.1322928667068481,3.009296178817749,-0.44998351229987743,0.1733607202768325,0.0765412002801895,-4.4952303142054006e-05,0.1092789992690086,-0.0167812369763851,-2.886817856051493e-05,0.0,2.766966819763184,-0.9227840423583983,0.0,14.5,0.0,2.956151962280273,-0.6205884933471679,0.0,15.75,0.0,3.085255622863769,-0.32912178039550777,0.0,17.0,0.0,3.176450729370117,-0.3191082000732422,0.0,13.0,,,,,,,,,,
0.0,0.1322928667068481,3.009296178817749,-0.44998351229987743,0.1733607202768325,0.0765412002801895,-4.4952303142054006e-05,0.1092789992690086,-0.0167812369763851,-2.886817856051493e-05,0.0,2.825260162353516,-0.8787958145141602,0.0,13.75,0.0,2.99227237701416,-0.48576278686523433,0.0,18.0,0.0,3.0573606491088867,-0.3638116836547852,0.0,18.5,0.0,3.144979476928711,-0.2829877853393554,0.0,13.25,,,,,,,,,,
0.0,0.1322928667068481,3.009296178817749,-0.44998351229987743,0.1733607202768325,0.0765412002801895,-4.4952303142054006e-05,0.1092789992690086,-0.0167812369763851,-2.886817856051493e-05,0.0,2.7927160263061523,-0.928506088256836,0.0,13.75,0.0,2.99227237701416,-0.4396287918090821,0.0,17.5,,,,,,,,,,,,,,,,,,,,
0.0,0.1322928667068481,3.009296178817749,-0.44998351229987743,0.1733607202768325,0.0765412002801895,-4.4952303142054006e-05,0.1092789992690086,-0.0167812369763851,-2.886817856051493e-05,0.0,2.772688865661621,-0.9184925079345704,0.0,13.25,0.0,2.999424934387207,-0.38026256561279304,0.0,16.0,0.0,3.088831901550293,-0.2590267181396485,0.0,18.0,0.0,3.161787986755371,-0.3040878295898437,0.0,14.5,,,,,,,,,,
0.0,0.1322928667068481,3.009296178817749,-0.44998351229987743,0.1733607202768325,0.0765412002801895,-4.4952303142054006e-05,0.1092789992690086,-0.0167812369763851,-2.886817856051493e-05,0.0,3.020524978637696,-0.38276596069335944,0.0,14.5,0.0,3.1800270080566406,-0.4503576278686523,0.0,15.0,0.0,3.116011619567871,-0.3437845230102538,0.0,18.25,,,,,,,,,,,,,,,
0.0,0.1322928667068481,3.009296178817749,-0.44998351229987743,0.1733607202768325,0.0765412002801895,-4.4952303142054006e-05,0.1092789992690086,-0.0167812369763851,-2.886817856051493e-05,0.0,2.7365684509277344,-1.0322181701660154,0.0,12.5,0.0,3.018021583557129,-0.3541557312011719,0.0,15.0,0.0,3.1821727752685547,-0.4371253967285157,0.0,15.25,0.0,3.02731990814209,-0.3537981033325196,0.0,15.0,0.0,3.1131505966186523,-0.3216115951538086,0.0,18.5,,,,,
0.0,0.1322928667068481,3.009296178817749,-0.44998351229987743,0.1733607202768325,0.0765412002801895,-4.4952303142054006e-05,0.1092789992690086,-0.0167812369763851,-2.886817856051493e-05,0.0,2.794504165649414,-0.8995382308959962,0.0,12.75,0.0,3.013014793395996,-0.4142372131347657,0.0,17.25,0.0,3.099203109741211,-0.3967134475708008,0.0,19.0,0.0,3.177165985107422,-0.4303304672241211,0.0,15.75,,,,,,,,,,
0.0,0.1322928667068481,3.009296178817749,-0.44998351229987743,0.1733607202768325,0.0765412002801895,-4.4952303142054006e-05,0.1092789992690086,-0.0167812369763851,-2.886817856051493e-05,0.0,2.788424491882324,-0.8480398178100585,0.0,13.25,0.0,2.991199493408203,-0.46788139343261703,0.0,15.0,0.0,3.1020641326904297,-0.42067451477050777,0.0,17.75,0.0,3.176808357238769,-0.49076957702636703,0.0,14.25,,,,,,,,,,
0.0,0.1322928667068481,3.009296178817749,-0.44998351229987743,0.1733607202768325,0.0765412002801895,-4.4952303142054006e-05,0.1092789992690086,-0.0167812369763851,-2.886817856051493e-05,0.0,3.099203109741211,-0.3788320541381836,0.0,18.0,0.0,3.176093101501465,-0.47288818359375,0.0,14.5,,,,,,,,,,,,,,,,,,,,
0.0,0.1322928667068481,3.009296178817749,-0.44998351229987743,0.1733607202768325,0.0765412002801895,-4.4952303142054006e-05,0.1092789992690086,-0.0167812369763851,-2.886817856051493e-05,0.0,3.100275993347168,-0.4210321426391602,0.0,19.5,0.0,3.1675100326538086,-0.48290176391601547,0.0,15.75,,,,,,,,,,,,,,,,,,,,
0.0,0.1322928667068481,3.009296178817749,-0.44998351229987743,0.1733607202768325,0.0765412002801895,-4.4952303142054006e-05,0.1092789992690086,-0.0167812369763851,-2.886817856051493e-05,0.0,3.185033798217773,-0.5708782196044919,0.0,14.25,,,,,,,,,,,,,,,,,,,,,,,,,
0.0,0.1322928667068481,3.009296178817749,-0.44998351229987743,0.1733607202768325,0.0765412002801895,-4.4952303142054006e-05,0.1092789992690086,-0.0167812369763851,-2.886817856051493e-05,0.0,3.112435340881348,-0.3613082885742188,0.0,18.25,0.0,3.175020217895508,-0.5086509704589842,0.0,15.5,,,,,,,,,,,,,,,,,,,,
0.0,0.1322928667068481,3.009296178817749,-0.44998351229987743,0.1733607202768325,0.0765412002801895,-4.4952303142054006e-05,0.1092789992690086,-0.0167812369763851,-2.886817856051493e-05,0.0,3.0241012573242188,-0.2465097427368165,0.0,15.25,0.0,3.083467483520508,-0.2844182968139648,0.0,17.5,0.0,3.15248966217041,-0.3355590820312499,0.0,13.25,,,,,,,,,,,,,,,
0.0,0.1322928667068481,3.009296178817749,-0.44998351229987743,0.1733607202768325,0.0765412002801895,-4.4952303142054006e-05,0.1092789992690086,-0.0167812369763851,-2.886817856051493e-05,0.0,3.011941909790039,-0.2461521148681642,0.0,15.25,0.0,3.086686134338379,-0.2987234115600586,0.0,17.5,,,,,,,,,,,,,,,,,,,,
0.0,0.1322928667068481,3.009296178817749,-0.44998351229987743,0.1733607202768325,0.0765412002801895,-4.4952303142054006e-05,0.1092789992690086,-0.0167812369763851,-2.886817856051493e-05,0.0,2.9976367950439453,-0.21325035095214862,0.0,14.5,0.0,3.074526786804199,-0.2729742050170898,0.0,16.0,,,,,,,,,,,,,,,,,,,,
0.0,0.1322928667068481,3.009296178817749,-0.44998351229987743,0.1733607202768325,0.0765412002801895,-4.4952303142054006e-05,0.1092789992690086,-0.0167812369763851,-2.886817856051493e-05,0.0,3.016948699951172,-0.2486555099487306,0.0,13.75,0.0,3.0870437622070312,-0.31982345581054683,0.0,16.25,,,,,,,,,,,,,,,,,,,,
0.0,0.1322928667068481,3.009296178817749,-0.44998351229987743,0.1733607202768325,0.0765412002801895,-4.4952303142054006e-05,0.1092789992690086,-0.0167812369763851,-2.886817856051493e-05,0.0,3.086686134338379,-0.5025712966918945,0.0,12.0,,,,,,,,,,,,,,,,,,,,,,,,,
0.0,0.1322928667068481,3.009296178817749,-0.44998351229987743,0.1733607202768325,0.0765412002801895,-4.4952303142054006e-05,0.1092789992690086,-0.0167812369763851,-2.886817856051493e-05,0.0,3.0105113983154297,-0.5211679458618165,0.0,15.0,0.0,3.072381019592285,-0.5211679458618165,0.0,16.75,,,,,,,,,,,,,,,,,,,,
0.0,0.1322928667068481,3.009296178817749,-0.44998351229987743,0.1733607202768325,0.0765412002801895,-4.4952303142054006e-05,0.1092789992690086,-0.0167812369763851,-2.886817856051493e-05,0.0,2.843856811523437,-0.7850973129272459,0.0,12.25,0.0,3.002643585205078,-0.45429153442382797,0.0,16.75,0.0,3.074526786804199,-0.3992168426513672,0.0,18.25,0.0,3.1385421752929688,-0.4439203262329102,0.0,13.5,,,,,,,,,,
0.0,0.1322928667068481,3.009296178817749,-0.44998351229987743,0.1733607202768325,0.0765412002801895,-4.4952303142054006e-05,0.1092789992690086,-0.0167812369763851,-2.886817856051493e-05,0.0,2.846002578735352,-0.8737890243530274,0.0,12.0,0.0,3.0122995376586914,-0.3909914016723633,0.0,18.75,0.0,3.045201301574707,-0.3734676361083985,0.0,19.5,0.0,3.1145811080932617,-0.402077865600586,0.0,12.5,,,,,,,,,,
0.0,0.1322928667068481,3.009296178817749,-0.44998351229987743,0.1733607202768325,0.0765412002801895,-4.4952303142054006e-05,0.1092789992690086,-0.0167812369763851,-2.886817856051493e-05,0.0,2.994418144226074,-0.247940254211426,0.0,17.75,0.0,3.038763999938965,-0.2840606689453124,0.0,18.0,,,,,,,,,,,,,,,,,,,,
0.0,0.1322928667068481,3.009296178817749,-0.44998351229987743,0.1733607202768325,0.0765412002801895,-4.4952303142054006e-05,0.1092789992690086,-0.0167812369763851,-2.886817856051493e-05,0.0,2.9954910278320312,-0.3423540115356446,0.0,18.0,0.0,3.031611442565918,-0.3498641967773437,0.0,18.0,,,,,,,,,,,,,,,,,,,,
0.0,0.1322928667068481,3.009296178817749,-0.44998351229987743,0.1733607202768325,0.0765412002801895,-4.4952303142054006e-05,0.1092789992690086,-0.0167812369763851,-2.886817856051493e-05,0.0,3.0527114868164062,-0.38276596069335944,0.0,21.5,0.0,3.118157386779785,-0.4027931213378907,0.0,14.5,0.0,3.020524978637696,-0.3434268951416015,0.0,20.25,,,,,,,,,,,,,,,
0.0,0.1322928667068481,3.009296178817749,-0.44998351229987743,0.1733607202768325,0.0765412002801895,-4.4952303142054006e-05,0.1092789992690086,-0.0167812369763851,-2.886817856051493e-05,0.0,3.036975860595703,-0.3866998672485352,0.0,20.75,0.0,3.075599670410156,-0.4328338623046875,0.0,23.0,0.0,3.12960147857666,-0.49434585571289047,0.0,17.5,,,,,,,,,,,,,,,
0.0,0.1322928667068481,3.009296178817749,-0.44998351229987743,0.1733607202768325,0.0765412002801895,-4.4952303142054006e-05,0.1092789992690086,-0.0167812369763851,-2.886817856051493e-05,0.0,2.9032230377197266,-0.5640832901000976,0.0,12.25,0.0,3.028750419616699,-0.3659574508666992,0.0,20.25,0.0,3.072023391723633,-0.41137619018554694,0.0,22.25,0.0,3.12960147857666,-0.45393390655517574,0.0,16.75,,,,,,,,,,
0.0,0.1322928667068481,3.009296178817749,-0.44998351229987743,0.1733607202768325,0.0765412002801895,-4.4952303142054006e-05,0.1092789992690086,-0.0167812369763851,-2.886817856051493e-05,0.0,3.085613250732422,-0.436410140991211,0.0,21.5,0.0,3.146052360534668,-0.484332275390625,0.0,16.75,0.0,3.029465675354004,-0.3112403869628906,0.0,19.25,,,,,,,,,,,,,,,
0.0,0.1322928667068481,3.009296178817749,-0.44998351229987743,0.1733607202768325,0.0765412002801895,-4.4952303142054006e-05,0.1092789992690086,-0.0167812369763851,-2.886817856051493e-05,0.0,3.074884414672852,-0.3866998672485352,0.0,22.75,0.0,3.1328201293945312,-0.4814712524414062,0.0,17.5,0.0,3.032684326171875,-0.337704849243164,0.0,20.75,,,,,,,,,,,,,,,
0.0,0.1322928667068481,3.009296178817749,-0.44998351229987743,0.1733607202768325,0.0765412002801895,-4.4952303142054006e-05,0.1092789992690086,-0.0167812369763851,-2.886817856051493e-05,,,,,,,,,,,,,,,,,,,,,,,,,,,,,,
0.0,0.1322928667068481,3.009296178817749,-0.44998351229987743,0.1733607202768325,0.0765412002801895,-4.4952303142054006e-05,0.1092789992690086,-0.0167812369763851,-2.886817856051493e-05,0.0,3.049492835998535,-0.44570846557617194,0.0,19.0,0.0,3.0891895294189453,-0.4535762786865234,0.0,21.75,0.0,3.1360387802124023,-0.42353553771972663,0.0,16.75,,,,,,,,,,,,,,,
0.0,0.1322928667068481,3.009296178817749,-0.44998351229987743,0.1733607202768325,0.0765412002801895,-4.4952303142054006e-05,0.1092789992690086,-0.0167812369763851,-2.886817856051493e-05,0.0,3.051638603210449,-0.4417745590209961,0.0,18.5,0.0,3.093123435974121,-0.44678134918212886,0.0,21.75,0.0,3.136754035949707,-0.4210321426391602,0.0,16.75,,,,,,,,,,,,,,,
0.0,0.1322928667068481,3.009296178817749,-0.44998351229987743,0.1733607202768325,0.0765412002801895,-4.4952303142054006e-05,0.1092789992690086,-0.0167812369763851,-2.886817856051493e-05,0.0,2.9954910278320312,-0.3877727508544922,0.0,15.25,0.0,3.0766725540161133,-0.4013626098632813,0.0,15.75,,,,,,,,,,,,,,,,,,,,
0.0,0.1322928667068481,3.009296178817749,-0.44998351229987743,0.1733607202768325,0.0765412002801895,-4.4952303142054006e-05,0.1092789992690086,-0.0167812369763851,-2.886817856051493e-05,0.0,3.097057342529297,-0.3523675918579102,0.0,18.0,0.0,3.160715103149414,-0.41817111968994136,0.0,14.25,0.0,3.0241012573242188,-0.3434268951416015,0.0,15.5,,,,,,,,,,,,,,,
0.0,0.1322928667068481,3.009296178817749,-0.44998351229987743,0.1733607202768325,0.0765412002801895,-4.4952303142054006e-05,0.1092789992690086,-0.0167812369763851,-2.886817856051493e-05,0.0,3.0090808868408203,-0.3620235443115235,0.0,17.25,0.0,3.045201301574707,-0.3738252639770508,0.0,17.75,,,,,,,,,,,,,,,,,,,,
0.0,0.1322928667068481,3.009296178817749,-0.44998351229987743,0.1733607202768325,0.0765412002801895,-4.4952303142054006e-05,0.1092789992690086,-0.0167812369763851,-2.886817856051493e-05,0.0,3.0237436294555664,-0.3584472656249999,0.0,16.0,0.0,3.08990478515625,-0.3001539230346679,0.0,18.5,0.0,3.1496286392211914,-0.2987234115600586,0.0,14.25,,,,,,,,,,,,,,,
0.0,0.1322928667068481,3.009296178817749,-0.44998351229987743,0.1733607202768325,0.0765412002801895,-4.4952303142054006e-05,0.1092789992690086,-0.0167812369763851,-2.886817856051493e-05,0.0,3.100275993347168,-0.3570167541503906,0.0,22.25,0.0,3.1478404998779297,-0.3516523361206055,0.0,18.0,,,,,,,,,,,,,,,,,,,,
0.0,0.1322928667068481,3.009296178817749,-0.44998351229987743,0.1733607202768325,0.0765412002801895,-4.4952303142054006e-05,0.1092789992690086,-0.0167812369763851,-2.886817856051493e-05,0.0,3.056645393371582,-0.3155319213867187,0.0,19.0,0.0,3.101348876953125,-0.2890674591064452,0.0,22.5,0.0,3.1414031982421875,-0.31410140991210933,0.0,18.5,,,,,,,,,,,,,,,
0.0,0.1322928667068481,3.009296178817749,-0.44998351229987743,0.1733607202768325,0.0765412002801895,-4.4952303142054006e-05,0.1092789992690086,-0.0167812369763851,-2.886817856051493e-05,0.0,3.0355453491210938,-0.3409235000610351,0.0,18.25,0.0,3.0945539474487305,-0.3123132705688476,0.0,20.75,0.0,3.152132034301758,-0.3259031295776367,0.0,17.0,,,,,,,,,,,,,,,
0.0,0.1322928667068481,3.009296178817749,-0.44998351229987743,0.1733607202768325,0.0765412002801895,-4.4952303142054006e-05,0.1092789992690086,-0.0167812369763851,-2.886817856051493e-05,0.0,3.033757209777832,-0.3588048934936524,0.0,18.75,0.0,3.0924081802368164,-0.3355590820312499,0.0,21.0,0.0,3.1489133834838867,-0.3470031738281249,0.0,17.0,,,,,,,,,,,,,,,
0.0,0.1322928667068481,3.009296178817749,-0.44998351229987743,0.1733607202768325,0.0765412002801895,-4.4952303142054006e-05,0.1092789992690086,-0.0167812369763851,-2.886817856051493e-05,0.0,3.023386001586914,-0.3126708984374999,0.0,19.0,0.0,3.0881166458129883,-0.3101675033569336,0.0,20.75,0.0,3.15248966217041,-0.3298370361328124,0.0,17.0,,,,,,,,,,,,,,,
0.0,0.1322928667068481,3.009296178817749,-0.44998351229987743,0.1733607202768325,0.0765412002801895,-4.4952303142054006e-05,0.1092789992690086,-0.0167812369763851,-2.886817856051493e-05,0.0,3.145337104797364,-0.35773200988769527,0.0,18.75,0.0,3.100275993347168,-0.3423540115356446,0.0,22.5,,,,,,,,,,,,,,,,,,,,
0.0,0.1322928667068481,3.009296178817749,-0.44998351229987743,0.1733607202768325,0.0765412002801895,-4.4952303142054006e-05,0.1092789992690086,-0.0167812369763851,-2.886817856051493e-05,0.0,3.094911575317383,-0.413521957397461,0.0,22.0,,,,,,,,,,,,,,,,,,,,,,,,,
0.0,0.1322928667068481,3.009296178817749,-0.44998351229987743,0.1733607202768325,0.0765412002801895,-4.4952303142054006e-05,0.1092789992690086,-0.0167812369763851,-2.886817856051493e-05,0.0,3.011941909790039,-0.4535762786865234,0.0,16.75,0.0,3.085970878601074,-0.3570167541503906,0.0,18.5,0.0,3.155350685119629,-0.3441421508789062,0.0,14.75,,,,,,,,,,,,,,,
0.0,0.1322928667068481,3.009296178817749,-0.44998351229987743,0.1733607202768325,0.0765412002801895,-4.4952303142054006e-05,0.1092789992690086,-0.0167812369763851,-2.886817856051493e-05,0.0,2.994060516357422,-0.415667724609375,0.0,17.0,0.0,3.0813217163085938,-0.367745590209961,0.0,18.0,0.0,3.1589269638061523,-0.2887098312377929,0.0,14.5,,,,,,,,,,,,,,,
0.0,0.1322928667068481,3.009296178817749,-0.44998351229987743,0.1733607202768325,0.0765412002801895,-4.4952303142054006e-05,0.1092789992690086,-0.0167812369763851,-2.886817856051493e-05,0.0,2.8989315032958984,-0.4360525131225586,0.0,12.0,0.0,3.019094467163086,-0.43211860656738277,0.0,18.25,0.0,3.096342086791992,-0.42389316558837886,0.0,20.5,0.0,3.158211708068848,-0.4002897262573242,0.0,17.25,,,,,,,,,,
0.0,0.1322928667068481,3.009296178817749,-0.44998351229987743,0.1733607202768325,0.0765412002801895,-4.4952303142054006e-05,0.1092789992690086,-0.0167812369763851,-2.886817856051493e-05,0.0,3.027677536010742,-0.4310457229614258,0.0,18.5,0.0,3.090977668762207,-0.3874151229858399,0.0,21.0,0.0,3.146052360534668,-0.3019420623779297,0.0,17.0,,,,,,,,,,,,,,,
0.0,0.1322928667068481,3.009296178817749,-0.44998351229987743,0.1733607202768325,0.0765412002801895,-4.4952303142054006e-05,0.1092789992690086,-0.0167812369763851,-2.886817856051493e-05,,,,,,,,,,,,,,,,,,,,,,,,,,,,,,
0.0,0.1322928667068481,3.009296178817749,-0.44998351229987743,0.1733607202768325,0.0765412002801895,-4.4952303142054006e-05,0.1092789992690086,-0.0167812369763851,-2.886817856051493e-05,,,,,,,,,,,,,,,,,,,,,,,,,,,,,,
0.0,0.1322928667068481,3.009296178817749,-0.44998351229987743,0.1733607202768325,0.0765412002801895,-4.4952303142054006e-05,0.1092789992690086,-0.0167812369763851,-2.886817856051493e-05,,,,,,,,,,,,,,,,,,,,,,,,,,,,,,
0.0,0.1322928667068481,3.009296178817749,-0.44998351229987743,0.1733607202768325,0.0765412002801895,-4.4952303142054006e-05,0.1092789992690086,-0.0167812369763851,-2.886817856051493e-05,,,,,,,,,,,,,,,,,,,,,,,,,,,,,,
0.0,0.1322928667068481,3.009296178817749,-0.44998351229987743,0.1733607202768325,0.0765412002801895,-4.4952303142054006e-05,0.1092789992690086,-0.0167812369763851,-2.886817856051493e-05,,,,,,,,,,,,,,,,,,,,,,,,,,,,,,
0.0,0.1322928667068481,3.009296178817749,-0.44998351229987743,0.1733607202768325,0.0765412002801895,-4.4952303142054006e-05,0.1092789992690086,-0.0167812369763851,-2.886817856051493e-05,0.0,3.093123435974121,-0.37775917053222663,0.0,19.25,0.0,3.165006637573242,-0.3444997787475586,0.0,16.0,,,,,,,,,,,,,,,,,,,,
0.0,0.1322928667068481,3.009296178817749,-0.44998351229987743,0.1733607202768325,0.0765412002801895,-4.4952303142054006e-05,0.1092789992690086,-0.0167812369763851,-2.886817856051493e-05,0.0,3.049135208129883,-0.3552286148071288,0.0,20.25,0.0,3.09598445892334,-0.3398506164550781,0.0,23.25,0.0,3.1464099884033203,-0.3044454574584961,0.0,19.25,,,,,,,,,,,,,,,
0.0,0.1322928667068481,3.009296178817749,-0.44998351229987743,0.1733607202768325,0.0765412002801895,-4.4952303142054006e-05,0.1092789992690086,-0.0167812369763851,-2.886817856051493e-05,0.0,3.041625022888184,-0.4278270721435547,0.0,20.0,0.0,3.093838691711426,-0.4002897262573242,0.0,22.75,0.0,3.1442642211914062,-0.333413314819336,0.0,18.5,,,,,,,,,,,,,,,
0.0,0.1322928667068481,3.009296178817749,-0.44998351229987743,0.1733607202768325,0.0765412002801895,-4.4952303142054006e-05,0.1092789992690086,-0.0167812369763851,-2.886817856051493e-05,0.0,3.033757209777832,-0.38920326232910163,0.0,21.0,0.0,3.073453903198242,-0.3552286148071288,0.0,22.5,0.0,3.1299591064453125,-0.2518741607666015,0.0,17.75,,,,,,,,,,,,,,,
0.0,0.1322928667068481,3.009296178817749,-0.44998351229987743,0.1733607202768325,0.0765412002801895,-4.4952303142054006e-05,0.1092789992690086,-0.0167812369763851,-2.886817856051493e-05,0.0,3.02731990814209,-0.3627388000488281,0.0,19.0,0.0,3.085613250732422,-0.2722589492797851,0.0,21.5,0.0,3.1442642211914062,-0.2783386230468749,0.0,17.25,,,,,,,,,,,,,,,
0.0,0.1322928667068481,3.009296178817749,-0.44998351229987743,0.1733607202768325,0.0765412002801895,-4.4952303142054006e-05,0.1092789992690086,-0.0167812369763851,-2.886817856051493e-05,0.0,2.933979034423828,-0.4049388885498047,0.0,12.5,0.0,3.03804874420166,-0.356301498413086,0.0,21.75,0.0,3.0766725540161133,-0.3527252197265624,0.0,24.0,0.0,3.131389617919922,-0.35773200988769527,0.0,18.75,,,,,,,,,,
0.0,0.1322928667068481,3.009296178817749,-0.44998351229987743,0.1733607202768325,0.0765412002801895,-4.4952303142054006e-05,0.1092789992690086,-0.0167812369763851,-2.886817856051493e-05,0.0,3.0530691146850586,-0.368818473815918,0.0,18.25,0.0,3.093123435974121,-0.35773200988769527,0.0,21.75,0.0,3.13711166381836,-0.3648845672607422,0.0,16.75,,,,,,,,,,,,,,,
0.0,0.1322928667068481,3.009296178817749,-0.44998351229987743,0.1733607202768325,0.0765412002801895,-4.4952303142054006e-05,0.1092789992690086,-0.0167812369763851,-2.886817856051493e-05,0.0,3.065943717956543,-0.4550067901611327,0.0,16.75,,,,,,,,,,,,,,,,,,,,,,,,,
0.0,0.1322928667068481,3.009296178817749,-0.44998351229987743,0.1733607202768325,0.0765412002801895,-4.4952303142054006e-05,0.1092789992690086,-0.0167812369763851,-2.886817856051493e-05,,,,,,,,,,,,,,,,,,,,,,,,,,,,,,
0.0,0.1322928667068481,3.009296178817749,-0.44998351229987743,0.1733607202768325,0.0765412002801895,-4.4952303142054006e-05,0.1092789992690086,-0.0167812369763851,-2.886817856051493e-05,,,,,,,,,,,,,,,,,,,,,,,,,,,,,,
0.0,0.1322928667068481,3.009296178817749,-0.44998351229987743,0.1733607202768325,0.0765412002801895,-4.4952303142054006e-05,0.1092789992690086,-0.0167812369763851,-2.886817856051493e-05,,,,,,,,,,,,,,,,,,,,,,,,,,,,,,
0.0,0.1322928667068481,3.009296178817749,-0.44998351229987743,0.1733607202768325,0.0765412002801895,-4.4952303142054006e-05,0.1092789992690086,-0.0167812369763851,-2.886817856051493e-05,,,,,,,,,,,,,,,,,,,,,,,,,,,,,,
0.0,0.1322928667068481,3.009296178817749,-0.44998351229987743,0.1733607202768325,0.0765412002801895,-4.4952303142054006e-05,0.1092789992690086,-0.0167812369763851,-2.886817856051493e-05,0.0,3.093481063842773,-0.47110004425048824,0.0,13.75,,,,,,,,,,,,,,,,,,,,,,,,,
0.0,0.1322928667068481,3.009296178817749,-0.44998351229987743,0.1733607202768325,0.0765412002801895,-4.4952303142054006e-05,0.1092789992690086,-0.0167812369763851,-2.886817856051493e-05,0.0,3.0530691146850586,-0.7479040145874023,0.0,14.5,0.0,2.966165542602539,-0.6105749130249023,0.0,14.5,,,,,,,,,,,,,,,,,,,,
0.0,0.1322928667068481,3.009296178817749,-0.44998351229987743,0.1733607202768325,0.0765412002801895,-4.4952303142054006e-05,0.1092789992690086,-0.0167812369763851,-2.886817856051493e-05,0.0,3.073453903198242,-0.589474868774414,0.0,12.75,0.0,2.95865535736084,-0.485405158996582,0.0,13.5,,,,,,,,,,,,,,,,,,,,
0.0,0.1322928667068481,3.009296178817749,-0.44998351229987743,0.1733607202768325,0.0765412002801895,-4.4952303142054006e-05,0.1092789992690086,-0.0167812369763851,-2.886817856051493e-05,0.0,3.059864044189453,-0.6137935638427734,0.0,14.0,0.0,2.966165542602539,-0.5111543655395506,0.0,14.0,,,,,,,,,,,,,,,,,,,,
0.0,0.1322928667068481,3.009296178817749,-0.44998351229987743,0.1733607202768325,0.0765412002801895,-4.4952303142054006e-05,0.1092789992690086,-0.0167812369763851,-2.886817856051493e-05,0.0,2.9554367065429688,-0.5823223114013671,0.0,15.5,0.0,3.0448436737060547,-0.5522815704345704,0.0,14.5,,,,,,,,,,,,,,,,,,,,
0.0,0.1322928667068481,3.009296178817749,-0.44998351229987743,0.1733607202768325,0.0765412002801895,-4.4952303142054006e-05,0.1092789992690086,-0.0167812369763851,-2.886817856051493e-05,0.0,2.8095245361328125,-0.78724308013916,0.0,13.25,0.0,2.9633045196533203,-0.5376188278198242,0.0,16.5,0.0,3.043055534362793,-0.4610864639282226,0.0,16.25,,,,,,,,,,,,,,,
0.0,0.1322928667068481,3.009296178817749,-0.44998351229987743,0.1733607202768325,0.0765412002801895,-4.4952303142054006e-05,0.1092789992690086,-0.0167812369763851,-2.886817856051493e-05,0.0,2.8449296951293945,-0.737175178527832,0.0,14.0,0.0,2.993345260620117,-0.40636940002441413,0.0,19.5,0.0,3.046274185180664,-0.3434268951416015,0.0,20.0,0.0,3.1270980834960938,-0.299081039428711,0.0,13.25,,,,,,,,,,
0.0,0.1322928667068481,3.009296178817749,-0.44998351229987743,0.1733607202768325,0.0765412002801895,-4.4952303142054006e-05,0.1092789992690086,-0.0167812369763851,-2.886817856051493e-05,0.0,2.845644950866699,-0.7471887588500976,0.0,12.5,0.0,3.0062198638916016,-0.3259031295776367,0.0,18.5,0.0,3.0559301376342773,-0.2668945312499999,0.0,19.75,0.0,3.130674362182617,-0.2608148574829101,0.0,14.0,,,,,,,,,,
0.0,0.1322928667068481,3.009296178817749,-0.44998351229987743,0.1733607202768325,0.0765412002801895,-4.4952303142054006e-05,0.1092789992690086,-0.0167812369763851,-2.886817856051493e-05,0.0,3.0115842819213867,-0.2547351837158202,0.0,19.0,0.0,3.049492835998535,-0.2429334640502931,0.0,20.5,0.0,3.1081438064575195,-0.2347080230712892,0.0,14.0,,,,,,,,,,,,,,,
0.0,0.1322928667068481,3.009296178817749,-0.44998351229987743,0.1733607202768325,0.0765412002801895,-4.4952303142054006e-05,0.1092789992690086,-0.0167812369763851,-2.886817856051493e-05,,,,,,,,,,,,,,,,,,,,,,,,,,,,,,
0.0,0.1322928667068481,3.009296178817749,-0.44998351229987743,0.1733607202768325,0.0765412002801895,-4.4952303142054006e-05,0.1092789992690086,-0.0167812369763851,-2.886817856051493e-05,0.0,2.8531551361083984,-0.669583511352539,0.0,12.5,0.0,3.137826919555664,-0.31410140991210933,0.0,15.25,,,,,,,,,,,,,,,,,,,,
0.0,0.1322928667068481,3.009296178817749,-0.44998351229987743,0.1733607202768325,0.0765412002801895,-4.4952303142054006e-05,0.1092789992690086,-0.0167812369763851,-2.886817856051493e-05,0.0,2.856016159057617,-0.668510627746582,0.0,12.75,0.0,3.136754035949707,-0.3062335968017577,0.0,15.25,,,,,,,,,,,,,,,,,,,,
0.0,0.1322928667068481,3.009296178817749,-0.44998351229987743,0.1733607202768325,0.0765412002801895,-4.4952303142054006e-05,0.1092789992690086,-0.0167812369763851,-2.886817856051493e-05,0.0,3.1474828720092773,-0.2790538787841797,0.0,15.0,,,,,,,,,,,,,,,,,,,,,,,,,
